"ppg","acc_x","acc_y","acc_z"
"-149946,-149694,-149772,-150048,-150104,-149868,-149934,-149900,-149892,-150064,-149936,-149952,-150052,-150086,-149958,-150028,-149816,-149946,-150010,-149922,-149862,-149962,-149828,-149832,-149884,-149958,-149984,-149892,-150030,-149980,-149908,-149856,-150162,-149990,-150026,-149992,-149912,-149914,-149964,-150066,-149968,-149888,-149898,-149850,-149770,-150010,-149970,-149972,-149752,-149924,-149940,-149732,-149914,-149962,-150006,-149880,-149922,-150032,-149772,-149870,-149972,-149926,-149974,-150028,-149954,-149946,-149874,-150012,-149898,-150078,-149838,-149860,-150024,-149870,-150144,-149850,-149876,-149832,-149872,-149876,-149930,-149860,-149884,-149818,-150050,-149798,-149910,-149676,-150118,-149868,-149944,-149778,-150034,-150028,-149880,-149844,-150042,-149776,-149954,-150044,-149934,-149620,-149930,-149930,-149822,-150080,-149902,-149800,-150024,-149938,-149948,-149850,-149986,-149762,-150190,-149678,-150004,-149904,-149854,-149888,-149668,-150080,-149840,-150044,-150062,-149920,-150206,-150068,-149922,-150156,-149976,-149970,-150008,-150038,-150154,-150096,-150246,-149784,-150062,-149978,-149888,-149900,-149980,-149870,-150054,-150018,-150106,-150066,-149892,-150004,-149906,-150096,-149992,-149956,-149928,-150122,-149974,-149882,-149932,-150020,-150024,-149848,-150054,-149852,-149840,-149760,-149826,-150038,-150090,-150014,-150140,-149962,-150178,-150154,-150046,-150104,-149938,-150242,-150160,-150002,-150190,-150032,-150080,-150028,-150176,-149990,-149888,-149970,-149982,-149984,-150156,-150046,-149898,-150050,-150064,-149986,-150004,-150042,-149976,-150084,-150022,-150154,-149926,-150114,-150008,-150140,-149980,-149858,-150174,-150114,-150162,-150098,-150212,-150016,-150018,-150168,-150202,-149994,-150256,-150134,-149958,-150246,-150204,-149946,-150088,-150272,-150180,-150182,-150246,-149990,-150094,-150104,-150234,-150318,-150176,-150320,-150250,-150200,-150190,-150146,-150134,-150254,-150344,-150056,-150010,-150136,-150142,-150070,-150188,-150150,-150098,-150068,-150194,-150234,-150136,-149990,-150136,-150200,-150058,-150148,-150158,-150224,-150134,-150030,-150182,-149994,-150096,-150058,-150140,-150018,-150248,-150046,-150140,-149984,-150300,-149902,-150194,-150142,-150228,-150116,-150104,-150184,-150286,-150314,-149988,-150086,-150228,-150070,-150230,-150098,-150194,-150114,-150014,-150222,-150314,-150190,-150230,-150042,-150194,-150228,-150002,-150060,-150346,-150002,-150002,-150092,-150212,-150120,-149986,-150036,-150052,-150024,-150064,-150048,-150066,-149952,-150102,-150130,-150130,-149992,-150164,-150080,-150008,-150076,-150142,-150160,-150236,-150236,-150120,-150338,-150078,-150214,-149992,-149996,-150006,-150108,-149952,-150296,-150156,-150234,-150376,-149776,-150048,-150120,-150024,-150038,-150060,-150044,-150080,-150068,-150076,-149974,-149950,-150122,-149976,-149730,-150202,-150020,-150032,-150114,-150360,-149942,-149948,-150038,-150124,-149966,-149880,-150026,-149848,-149902,-150146,-149856,-150124,-150160,-150158,-150038,-149856,-149910,-150084,-150048,-149862,-150142,-150250,-150090,-149894,-149876,-150044,-149838,-149956,-149872,-150080,-150072,-150028,-150126,-149914,-150252,-149992,-150048,-149992,-149960,-150016,-150068,-150312,-150170,-150014,-149942,-150114,-150242,-150130,-149620,-150156,-150156,-150004,-149944,-150012,-149840,-149760,-150232,-150142,-150130,-150016,-150308,-150036,-150060,-150020,-149780,-149996,-150094,-150070,-150102,-149852,-150096,-150032,-150078,-150256,-149798,-149964,-150128,-150212,-149912,-149922,-150268,-150110,-150194,-150160,-150228,-150090,-150182,-149850,-149890,-150326,-150208,-150104,-149890,-150074,-149780,-150044,-150114,-150092,-150164,-150124,-150306,-150032,-150034,-150044,-149948,-150116,-150214,-150272,-150054,-150120,-150228,-150058,-149956,-150054,-150134,-150226,-150058,-149940,-149952,-150236,-150170,-149972,-150040,-150090,-150038,-150160,-150028,-150098,-150030,-150254,-150142,-149932,-150068,-150202,-150020,-150200,-149922,-150152,-150156,-150048,-150098,-149884,-150108,-150120,-150216,-150098,-150204,-150194,-150092,-150134,-150332,-150044,-149988,-150316,-150178,-150244,-150234,-150184,-150122,-150072,-150302,-150034,-150260,-150230,-150130,-149972,-150198,-150402,-150320,-150134,-150394,-150020,-150290,-150224,-150124,-149922,-150288,-150120,-150174,-150304,-150128,-150088,-150220,-150254,-150584,-150066,-150266,-150144,-149908,-149996,-150082,-149868,-150056,-150086,-150366,-150164,-150178,-150078,-150114,-150166,-150210,-150020,-150160,-150094,-150218,-150136,-150246,-150168,-150148,-149952,-150246,-150124,-150160,-149952,-150124,-150040,-149960,-150172,-150180,-150042,-150258,-150266,-150316,-150064,-150168,-150148,-150110,-150202,-150016,-150204,-150148,-150212,-150170,-150230,-150092,-150054,-150170,-150124,-150120,-149980,-150252,-150244,-150050,-149992,-150230,-150174,-150076,-150146,-150120,-150198,-150058,-150044,-150164,-150154,-150428,-149984,-150038,-150284,-150204,-150148,-150244,-150008,-150064,-150052,-150240,-150036,-150150,-150080,-150034,-150040,-150002,-149790,-150016,-150104,-150046,-149908,-150196,-150258,-150146,-149942,-149882,-150104,-150092,-150058,-149864,-149996,-150178,-149848,-149928,-149988,-150078,-150116,-150012,-150000,-150210,-150094,-150100,-150092,-150066,-150018,-150038,-150138,-149976,-149994,-150094,-150016,-150074,-150064,-149952,-150144,-149916,-150040,-149976,-150212,-150024,-150140,-150110,-150086,-150174,-150006,-150180,-149990,-150010,-149632,-150028,-150012,-150052,-149968,-149982,-149922,-150024,-150116,-150228,-149986,-149820,-150060,-150202,-150100,-149958,-150022,-150172,-149958,-150232,-149964,-149940,-150022,-149902,-150180,-150312,-149966,-149986,-150328,-150236,-149888,-149974,-150148,-150056,-149930,-150226,-150044,-150188,-149772,-150056,-150122,-149924,-149830,-150014,-150060,-150242,-150158,-149844,-150080,-150072,-150362,-150052,-150238,-149946,-150014,-150080,-150150,-150078,-150118,-150168,-150364,-150116,-150032,-150084,-150058,-150044,-150282,-150272,-150130,-150160,-150292,-149932,-150118,-150122,-150260,-150082,-150158,-150212,-150242,-150102,-150222,-149926,-149994,-149870,-150166,-150170,-150116,-150092,-149866,-150080,-150116,-150142,-150014,-149950,-150064,-150100,-150184,-150200,-150262,-149930,-149926,-149964,-149904,-150388,-150186,-149884,-150324,-150062,-150110,-150144,-150058,-150016,-150022,-150292,-150240,-150154,-149990,-150124,-150194,-150150,-150024,-150058,-150154,-150266,-150144,-150194,-150070,-150230,-150070,-150052,-150038,-150144,-150256,-150024,-150116,-150204,-150098,-149996,-149952,-150020,-150012,-149848,-150076,-150076,-150026,-149958,-150046,-150096,-150096,-150114,-150004,-150190,-149958,-150038,-150054,-149886,-150030,-149988,-149940,-150004,-150138,-150108,-149906,-150066,-149978,-150004,-150040,-149988,-150128,-150104,-150226,-150002,-150168,-150068,-150102,-150084,-150074,-150192,-150884,-149982,-150158,-150026,-150068,-150074,-150122,-150118,-150226,-150012,-150300,-150076,-150032,-149848,-150056,-150196,-150090,-150282,-150076,-149964,-150072,-150114,-150160,-150072,-150338,-150008,-150024,-149818,-150224,-150020,-150094,-149986,-150064,-150202,-149922,-150096,-149974,-150072,-150148,-150158,-149844,-150100,-150026,-150240,-150178,-149986,-149994,-149872,-150088,-150154,-149936,-150070,-150082,-150160,-150056,-150026,-149926,-150166,-150048,-149990,-149982,-150004,-149886,-149914,-149988,-150072,-150018,-150060,-149994,-150006,-149996,-150086,-150160,-150136,-150068,-150052,-149932,-150094,-150214,-149942,-150334,-149860,-150148,-150048,-150072,-150004,-150362,-150012,-149962,-150222,-150012,-150136,-150186,-150098,-150100,-149818,-150200,-150092,-150168,-149904,-149968,-150006,-150132,-149920,-150240,-150072,-150260,-149920,-150048,-149958,-150050,-150192,-149882,-149970,-150110,-150068,-149932,-150162,-149824,-150162,-150260,-150346,-150052,-150052,-150218,-149994,-150244,-149966,-150160,-150140,-150146,-149978,-150002,-150038,-149844,-150074,-150068,-150250,-150012,-150058,-150190,-149972,-150162,-150000,-149744,-150132,-149748,-149950,-150046,-150068,-149878,-149994,-150016,-149952,-150084,-150318,-150008,-150154,-149980,-150128,-150164,-150006,-149908,-150052,-150302,-149896,-150240,-150048,-149988,-149860,-149878,-150044,-150142,-149958,-150176,-150184,-149986,-150018,-150116,-150090,-150004,-150048,-150140,-150058,-149992,-149788,-150014,-149992,-150068,-150016,-150072,-149866,-150046,-149936,-149920,-150112,-149872,-149838,-149882,-150082,-149972,-149902,-149728,-149920,-149986,-150080,-149814,-149902,-149966,-149922,-150128,-149840,-149940,-150072,-150100,-149922,-149866,-150020,-150104,-149938,-150334,-149940,-150108,-150030,-150026,-149924,-149930,-150054,-150094,-150078,-150122,-150096,-150040,-149990,-149822,-150066,-149866,-149842,-150074,-150306,-149962,-150140,-149866,-149960,-150064,-150218,-149782,-149874,-149986,-149866,-149874,-149978,-149828,-149984,-150126,-150110,-149950,-150040,-149914,-150162,-149994,-149770,-149948,-149860,-149844,-149914,-149562,-149960,-150020,-150162,-150098,-150078,-149944,-149974,-150040,-150132,-150042,-150124,-149914,-150080,-149968,-150104,-150086,-150062,-150078,-149946,-150142,-150000,-149920,-150004,-149978,-150088,-150054,-150060,-149834,-149880,-149900,-150136,-150092,-150136,-150166,-149944,-150130,-149990,-150136,-150098,-150110,-150072,-150338,-150122,-149998,-150166,-149934,-150068,-149938,-149976,-149982,-150066,-150050,-150246,-149934,-149966,-149978,-149984,-150040,-149994,-149892,-150008,-149948,-150036,-149882,-150052,-150094,-150052,-150222,-150142,-150030,-150150,-149902,-150012,-150018,-149920,-150166,-150000,-149956,-150216,-149988,-149962,-149950,-149966,-150034,-150288,-150030,-150090,-149788,-150280,-149936,-150082,-150024,-150220,-150150,-150184,-150246,-150172,-150222,-150054,-150294,-149996,-150010,-150324,-150062,-150280,-149966,-150308,-149910,-150088,-150324,-150292,-150266,-150126,-150090,-150034,-150096,-150130,-150226,-150164,-150130,-150222,-150072,-150212,-150258,-149984,-150010,-149970,-150060,-149972,-150152,-150076,-150050,-150090,-150010,-150012,-149978,-150058,-150140,-150148,-150184,-150162,-150108,-149966,-150162,-150120,-149870,-150216,-149940,-150146,-150074,-150122,-150134,-150158,-150144,-150190,-150270,-149942,-150038,-150040,-150046,-150180,-150160,-150118,-149992,-150034,-150192,-150144,-150232,-150188,-150142,-150106,-150094,-150236,-149878,-150116,-150294,-150262,-150042,-150360,-150092,-150080,-150070,-150138,-150196,-150124,-150240,-150072,-150054,-150050,-150196,-150190,-150050,-150234,-150162,-149928,-150132,-150202,-150082,-149908,-150102,-150044,-150258,-150106,-150194,-150250,-150276,-150198,-150042,-150096,-150188,-149804,-149944,-150084,-150162,-150132,-150050,-149992,-150240,-150044,-149994,-150038,-149874,-150180,-150104,-149920,-150076,-149958,-149892,-149892,-150116,-150066,-149970,-150072,-150092,-150040,-149966,-149916,-149916,-150096,-150180,-149938,-150040,-149972,-150050,-149908,-150050,-150026,-149934,-149954,-150000,-150084,-150034,-149922,-150042,-150198,-150202,-150080,-150180,-150112,-149940,-150100,-150084,-149904,-150068,-150130,-149922,-149968,-149912,-150062,-150082,-150014,-149856,-150082,-149906,-150222,-149964,-150022,-149850,-149902,-149936,-150028,-150100,-149944,-149962,-150138,-150158,-149924,-150272,-149874,-150036,-149826,-149888,-150076,-150126,-149900,-150088,-149980,-149930,-150002,-150022,-150066,-149814,-150232,-150100,-149880,-150040,-149994,-149998,-149980,-150014,-149954,-150036,-150032,-150158,-150232,-149980,-149936,-150166,-150154,-150114,-150006,-149988,-150110,-150038,-149906,-150252,-149828,-149876,-150036,-149888,-149948,-150060,-150100,-149930,-150188,-150084,-149910,-149988,-150140,-150184,-150010,-149914,-149984,-150064,-149914,-150074,-150072,-150176,-149988,-149932,-149966,-150176,-150024,-150004,-149980,-150010,-149892,-149934,-149986,-150144,-150126,-150080,-150256,-150018,-150276,-149806,-150238,-150078,-150128,-149850,-150116,-150064,-150142,-149756,-149954,-150170,-150176,-150162,-150072,-150182,-150132,-149792,-150250,-150024,-150132,-149950,-150180,-150010,-150034,-150084,-150122,-150030,-150000,-149824,-150256,-150064,-150130,-150094,-150138,-150076,-150094,-150024,-150250,-150214,-150228,-150216,-150250,-150046,-150038,-149966,-150212,-150166,-150014,-150078,-150232,-150008,-150046,-150218,-150240,-150124,-150212,-150100,-150306,-150360,-149928,-150382,-150164,-150240,-150280,-150112,-150036,-150374,-150166,-150184,-150044,-150020,-150146,-150326,-150142,-150312,-150202,-150088,-150146,-150076,-150148,-149964,-150252,-150120,-150274,-150004,-150240,-150382,-150062,-150208,-149922,-150070,-149970,-150004,-150184,-149904,-150342,-150444,-150278,-150214,-150230,-150216,-150342,-150072,-150260,-150200,-150162,-150220,-150146,-150156,-150336,-150250,-150286,-150264,-150046,-150160,-150302,-150258,-150252,-150170,-150240,-150322,-150106,-150378,-150278,-149940,-150328,-150100,-150458,-150402,-150184,-150456,-150414,-150278,-150256,-150308,-150186,-150288,-149958,-150428,-150172,-150216,-150222,-150340,-150294,-150332,-150276,-150328,-150174,-150270,-150124,-150440,-149978,-150252,-149920,-150410,-150450,-150326,-150382,-150372,-150236,-150334,-150196,-150224,-149964,-150196,-149958,-150254,-150154,-150106,-150198,-150314,-150376,-150348,-150148,-150172,-150212,-150374,-150422,-150416,-150094,-150232,-150396,-150442,-150248,-150176,-150052,-150242,-150554,-150214,-150142,-150216,-150416,-150136,-150164,-150066,-150312,-150232,-150288,-150340,-150136,-150356,-150404,-150180,-150228,-150262,-150426,-150024,-150182,-150246,-150130,-150144,-150328,-150066,-150228,-150392,-150166,-150446,-150092,-150216,-150422,-150188,-150180,-150094,-150132,-150168,-150080,-150030,-150122,-150108,-150288,-150194,-150242,-150088,-150470,-150360,-150206,-150192,-150284,-150108,-150334,-150136,-150146,-150318,-150008,-150022,-150204,-150242,-150332,-150030,-150194,-150080,-150306,-150212,-150096,-150190,-150266,-150164,-150110,-150034,-150112,-150152,-150416,-150332,-150316,-150144,-150300,-150224,-150402,-150244,-150076,-150422,-150180,-150198,-149974,-150214,-150480,-150190,-150202,-150256,-150294,-150234,-150226,-150188,-150296,-150260,-150108,-150106,-150182,-149938,-150230,-150122,-150184,-150180,-150064,-150078,-150126,-150246,-150126,-150110,-150014,-149958,-150164,-150184,-150238,-150130,-150136,-150220,-150014,-150404,-150044,-150070,-150178,-150172,-150084,-150236,-150356,-150092,-150094,-150218,-150040,-150250,-149882,-150016,-150104,-149896,-150042,-150100,-150374,-150036,-150336,-150216,-150022,-150074,-150068,-150048,-149964,-150316,-150150,-150046,-149842,-150306,-150018,-150208,-150144,-150070,-150046,-150058,-150202,-150410,-150078,-150228,-150100,-150170,-150142,-149928,-150104,-150100,-150144,-150052,-150082,-149940,-150016,-149958,-150110,-149900,-150144,-150120,-150416,-150076,-150192,-150148,-150152,-150132,-150264,-150052,-150232,-150130,-150124,-150014,-150032,-150098,-150008,-150166,-149970,-150106,-150208,-150306,-150048,-150076,-150294,-150346,-150278,-150180,-150228,-150348,-150194,-150034,-150034,-150246,-150086,-150110,-150162,-150318,-150220,-150238,-150210,-150132,-150080,-150226,-150310,-150358,-150180,-150246,-150248,-150066,-150134,-150178,-150206,-150184,-150336,-150272,-150150,-150140,-150144,-150194,-150094,-149984,-150036,-150382,-150098,-150224,-150222,-150192,-150274,-150140,-150262,-150352,-150184,-150232,-150050,-150322,-150178,-149946,-150366,-150256,-150298,-150348,-150084,-150068,-150208,-150208,-150236,-150186,-150284,-150294,-150056,-150450,-150230,-150502,-150006,-150302,-149940,-150428,-150416,-150346,-150162,-150186,-150080,-150130,-150250,-150442,-150174,-150314,-150334,-150354,-150330,-150100,-149998,-150190,-150152,-149982,-150400,-150130,-150302,-150276,-150154,-150234,-150178,-150466,-150176,-150018,-150324,-150176,-150436,-150106,-150226,-150230,-150380,-150292,-150270,-150066,-150484,-150298,-150484,-149998,-150170,-150244,-150132,-150216,-150252,-150140,-150160,-150476,-150006,-150214,-150232,-150130,-150296,-150392,-150324,-150182,-150158,-150254,-150194,-150456,-150496,-150486,-150370,-150192,-150122,-150288,-150346,-150260,-150216,-150204,-150102,-150300,-150274,-150250,-150236,-150330,-150288,-150156,-150376,-150084,-150140,-150174,-150130,-150218,-150194,-150186,-150272,-150342,-149984,-150188,-150116,-150208,-150076,-150348,-150176,-150120,-150274,-150294,-150214,-149862,-150220,-150302,-150150,-150182,-150322,-150200,-150138,-150200,-150162,-150150,-150454,-150438,-150140,-150022,-150324,-150246,-150096,-150074,-150268,-150124,-150182,-149986,-150336,-150038,-150032,-150150,-150238,-150262,-150082,-150260,-150116,-150082,-150228,-150052,-150008,-150422,-150232,-150064,-150122,-150296,-150178,-150096,-150062,-150032,-150322,-150148,-150158,-150384,-150024,-150252,-150208,-150266,-150166,-150180,-150224,-150036,-149744,-150140,-150008,-150044,-150252,-150062,-150362,-150074,-149910,-150266,-150272,-150028,-150368,-150284,-150058,-150230,-150230,-149982,-150146,-150138,-150024,-150162,-150108,-150280,-150118,-150014,-149884,-149908,-149910,-150136,-150278,-150250,-150472,-150282,-150270,-150050,-150072,-150214,-149952,-149916,-150236,-150178,-150146,-149930,-150138,-150224,-150188,-150192,-150144,-150096,-150138,-150362,-150106,-150196,-150224,-150046,-150158,-150310,-150238,-150102,-150248,-150194,-150272,-150150,-150342,-150010,-150188,-150088,-149956,-150216,-149996,-150194,-150224,-150076,-150234,-150218,-150152,-150172,-150322,-150090,-150100,-150184,-150182,-150072,-150316,-150100,-150154,-150286,-150028,-150206,-150288,-150144,-150168,-150018,-150038,-150310,-150394,-150298,-150052,-149944,-150094,-150132,-150292,-150222,-150024,-150284,-150080,-150174,-150320,-150440,-150234,-150164,-149978,-150342,-150050,-150000,-150150,-150066,-150350,-150052,-150076,-150054,-150056,-150232,-150192,-150250,-149998,-150028,-150100,-150226,-149986,-150404,-150102,-150014,-150124,-150164,-150120,-150112,-150156,-150346,-150072,-150366,-150270,-150110,-149934,-150106,-149904,-150050,-150312,-149966,-150128,-150200,-150298,-149896,-150070,-150404,-150230,-150200,-150416,-150298,-150158,-149986,-150014,-150240,-150132,-150224,-150158,-150246,-150366,-149928,-150234,-150222,-150222,-150086,-150230,-150064,-150366,-150248,-150188,-150246,-150232,-150366,-150204,-150002,-150322,-150184,-150286,-150044,-150262,-150074,-150422,-150292,-150088,-150324,-150080,-150180,-150004,-150228,-150038,-150072,-150204,-150188,-149982,-150404,-150308,-150344,-150238,-150290,-150356,-150348,-150178,-150248,-150066,-150326,-150320,-150306,-149958,-150098,-150318,-150332,-150172,-150302,-150204,-150262,-150214,-150058,-149996,-150378,-150166,-150126,-150000,-150114,-150196,-150156,-150316,-150156,-149962,-150260,-150202,-150278,-150244,-150238,-150092,-149898,-150088,-150288,-150132,-150266,-150156,-150210,-150206,-150136,-150126,-150076,-150192,-150208,-150076,-150368,-150112,-150184,-150128,-150182,-150260,-150146,-150062,-150050,-150054,-150152,-150162,-150028,-150082,-150116,-150086,-150300,-150082,-150102,-149994,-150264,-150054,-149944,-149980,-150062,-149944,-150154,-150006,-150062,-150132,-150168,-149918,-150022,-150224,-150202,-150338,-150192,-150136,-150168,-150110,-150058,-150220,-150154,-150162,-149844,-150112,-149926,-150238,-149968,-150236,-150186,-149970,-150064,-150084,-149948,-150014,-150164,-150144,-150182,-150080,-150170,-150116,-150306,-150010,-150020,-150036,-149982,-150060,-150156,-150162,-150380,-150116,-150016,-150234,-150116,-150074,-150260,-150034,-150134,-150138,-149876,-150028,-150054,-149920,-150228,-149982,-149986,-150062,-149990,-149992,-150306,-150006,-150006,-150052,-150052,-150252,-150026,-150008,-150090,-149862,-149860,-149982,-150054,-149776,-149936,-150100,-149968,-149918,-149744,-149998,-149930,-150036,-149914,-149954,-149802,-149974,-149914,-150264,-150088,-150258,-150082,-150084,-149806,-150006,-150074,-150144,-149980,-150090,-150010,-150042,-150018,-149930,-149804,-149992,-150150,-149834,-150056,-150076,-149946,-149974,-150114,-149962,-150034,-149816,-149926,-150018,-149936,-149982,-149804,-149978,-149976,-149976,-150168,-149872,-149878,-150132,-150106,-149936,-149954,-150038,-149922,-150052,-150190,-150158,-150060,-150016,-149918,-150210,-149972,-149944,-150152,-150030,-150082,-149842,-149842,-149838,-150150,-149892,-149982,-150074,-150020,-150092,-149970,-150198,-149670,-150056,-149926,-150084,-150136,-150104,-150162,-150164,-150102,-149980,-149970,-150050,-150012,-150044,-150078,-150230,-149972,-150228,-149878,-150186,-149902,-150124,-150336,-150144,-150236,-149974,-150140,-150060,-149812,-150162,-149920,-149918,-150082,-150046,-150014,-149928,-150234,-150172,-150092,-150104,-150068,-150012,-149980,-150032,-149948,-150084,-150196,-150354,-150210,-150230,-149956,-150080,-150218,-150054,-150192,-150226,-150228,-150000,-150210,-150140,-150122,-150082,-149960,-150192,-150172,-150120,-149926,-150070,-149858,-150024,-149932,-150092,-150018,-150114,-150056,-150006,-149916,-150254,-150300,-150130,-150032,-150152,-149950,-150012,-150096,-150072,-150160,-149932,-150184,-150028,-150240,-150028,-150084,-149888,-150030,-150086,-150244,-150062,-150050,-150114,-150056,-150158,-150020,-149962,-150086,-149770,-149976,-150190,-150056,-150090,-149946,-149988,-150084,-150112,-149982,-150156,-149962,-150118,-149972,-149968,-150108,-150012,-150018,-150176,-149930,-150130,-150000,-149788,-150166,-150084,-150018,-150076,-150092,-149840,-150048,-149844,-149792,-149924,-149928,-149784,-150098,-149914,-150024,-150006,-149914,-149996,-149876,-149978,-149926,-149820,-149884,-149762,-150202,-150042,-150022,-149794,-150132,-150098,-150090,-150010,-150202,-149856,-150022,-150058,-149986,-149814,-149850,-149988,-149924,-150082,-150068,-149836,-150002,-150144,-149930,-150116,-150036,-149946,-150006,-149990,-149684,-149832,-150102,-150044,-150092,-149868,-150210,-149976,-150012,-149858,-149758,-149894,-149948,-150008,-149958,-150092,-150082,-150092,-149880,-149876,-150158,-149992,-150194,-150020,-149808,-150164,-150042,-150272,-149968,-149922,-149888,-149888,-150090,-150042,-150048,-150182,-150068,-149872,-150004,-149978,-149990,-149918,-150090,-149978,-149954,-149826,-150114,-149782,-149984,-150014,-150102,-149878,-149896,-149948,-149966,-149834,-150006,-149996,-150054,-150022,-150010,-149946,-149782,-150110,-149956,-149902,-149998,-150088,-149982,-149908,-150026,-150130,-149986,-150026,-150220,-150050,-149788,-149972,-150014,-150040,-149908,-150158,-150038,-150010,-150120,-150024,-149984,-150126,-149812,-150182,-150090,-149982,-149872,-150144,-150046,-149912,-149850,-150074,-150156,-149916,-150146,-149898,-150304,-150012,-149892,-149942,-150198,-150038,-149976,-149992,-149874,-150170,-150114,-150000,-149888,-150156,-150020,-150156,-150294,-150106,-150000,-149788,-149926,-150170,-150090,-149954,-149960,-149850,-150136,-150022,-149944,-149960,-149996,-150012,-150064,-150084,-150086,-150176,-150048,-150076,-150138,-149736,-149920,-149834,-150206,-150058,-150168,-150142,-149910,-150106,-150042,-150110,-149930,-150066,-149932,-150194,-150254,-150316,-150120,-149954,-150174,-150262,-150140,-149920,-150314,-149914,-149992,-150022,-149968,-149924,-149972,-149990,-150010,-150102,-150302,-150102,-149764,-150118,-149926,-150182,-150230,-150202,-150158,-150224,-150020,-150078,-150108,-150042,-149816,-150100,-150050,-150208,-150124,-150038,-150198,-150248,-150034,-150202,-149892,-150084,-150162,-150094,-149924,-150194,-150014,-150028,-150302,-149942,-150332,-150134,-150214,-150106,-149940,-150010,-150078,-150198,-150204,-150012,-149980,-150180,-150028,-150136,-150262,-150030,-150256,-150206,-149990,-149978,-149956,-150126,-149940,-150170,-150002,-150242,-149902,-150256,-150210,-150150,-150078,-149832,-150060,-149976,-150226,-150182,-150070,-149928,-150072,-150064,-149932,-150192,-150092,-150078,-150296,-150114,-149990,-149988,-150088,-150034,-150268,-150048,-150192,-150154,-150160,-149940,-150110,-149866,-150040,-149978,-149914,-150136,-149926,-150142,-150248,-150020,-150232,-149986,-150026,-149716,-149886,-149924,-150054,-150128,-150208,-150218,-150214,-150042,-150012,-150100,-149874,-150166,-150002,-149976,-150154,-150066,-150070,-150044,-149920,-150088,-149914,-149914,-150074,-150152,-149908,-150000,-150072,-149958,-150250,-149894,-149938,-150298,-150148,-150056,-149916,-150330,-150058,-149886,-150198,-150022,-149858,-150150,-149880,-150028,-149852,-149894,-149960,-149994,-150040,-149962,-150060,-150098,-150010,-149930,-149968,-150004,-149982,-150014,-150064,-150032,-150078,-150138,-150172,-149818,-149970,-149950,-150108,-150026,-150016,-149972,-150054,-149982,-149916,-150166,-150062,-150214,-150020,-149978,-150014,-149970,-150160,-150200,-150016,-149988,-150132,-150080,-150198,-149984,-150022,-150132,-150008,-150292,-149738,-149858,-149944,-149892,-150082,-149954,-150172,-149976,-150090,-149898,-150138,-150088,-150126,-149844,-149810,-149866,-150022,-150032,-150126,-149886,-149864,-149860,-150044,-150068,-150100,-150082,-149978,-150020,-150014,-150164,-149972,-150086,-150050,-150012,-150044,-150034,-149968,-149922,-149892,-149934,-150052,-149992,-149878,-150048,-149966,-149728,-149906,-149768,-150030,-149984,-149748,-150078,-149944,-149872,-149876,-150072,-149972,-150010,-149890,-150034,-150254,-149762,-149982,-149804,-150066,-149790,-149858,-149956,-149978,-150056,-149904,-149804,-149972,-150082,-149940,-149906,-149836,-149768,-150040,-150196,-149910,-149952,-149960,-149972,-149908,-149784,-149942,-149902,-150090,-149856,-150054,-149970,-149904,-150042,-150092,-150030,-149880,-149914,-150046,-149972,-150070,-149952,-149938,-149990,-149758,-150062,-150018,-149994,-149974,-150146,-149938,-150078,-150210,-150078,-149924,-149806,-150234,-150002,-149800,-150030,-150240,-150042,-150128,-149808,-150192,-149998,-150246,-150116,-149910,-150076,-150022,-150026,-150104,-150180,-149950,-150164,-150068,-149856,-149718,-150102,-150052,-149966,-149988,-150346,-150100,-150328,-150228,-150138,-150072,-150138,-149994,-150232,-150162,-150074,-150256,-150130,-150112,-150020,-150074,-149994,-150076,-149956,-150196,-150194,-150226,-150184,-149850,-150212,-150120,-150250,-149874,-150146,-150174,-150198,-150122,-150216,-150004,-150166,-149954,-149864,-150088,-150364,-150102,-150112,-150034,-149950,-150162,-149998,-150090,-150030,-150148,-150216,-150004,-149964,-150176,-150106,-150068,-150036,-150182,-150106,-150026,-149952,-150082,-150004,-150362,-150270,-150216,-150216,-150268,-150112,-150196,-150126,-150190,-150182,-150014,-150128,-149962,-150152,-150092,-150118,-150174,-149930,-150172,-150084,-149876,-150222,-150042,-150086,-150074,-149920,-149984,-149998,-150088,-150038,-150108,-150286,-150068,-150276,-149962,-150172,-149986,-150082,-150106,-149922,-149900,-150050,-150142,-149968,-149864,-150000,-149958,-150220,-149932,-150010,-150142,-150008,-149924,-150194,-150076,-149996,-150050,-149940,-149918,-150234,-149834,-149982,-149916,-149810,-149904,-149838,-149852,-150042,-150022,-149706,-150104,-150202,-150006,-150018,-150156,-149882,-149944,-149866,-150044,-150022,-149862,-149962,-150184,-149948,-150130,-149942,-150004,-149940,-149854,-149938,-150026,-149846,-149938,-149960,-149908,-150234,-149970,-150270,-149996,-150154,-149856,-150044,-150102,-149756,-149996,-149914,-149972,-150094,-149956,-149920,-150052,-149834,-150014,-149912,-149940,-149880,-150020,-149990,-149916,-149994,-150090,-150062,-149838,-150038,-150000,-149972,-150088,-149840,-149998,-149930,-150102,-149968,-149810,-150088,-150078,-149812,-149982,-150026,-149976,-150054,-149802,-150070,-149852,-149924,-149948,-149976,-150052,-149924,-149976,-150156,-150054,-150164,-150242,-150090,-149982,-150114,-150214,-149878,-150084,-150200,-149870,-150004,-150070,-150202,-150138,-150098,-150146,-149938,-149844,-150164,-150088,-150036,-149884,-150016,-149906,-150000,-150070,-149766,-150040,-149920,-150086,-150000,-150138,-149990,-149782,-150130,-149928,-150052,-150130,-149884,-149972,-149940,-149972,-149928,-149894,-149814,-150120,-150236,-149862,-150014,-149970,-150018,-149816,-149774,-149980,-150042,-150084,-150046,-150190,-150042,-150014,-149764,-150028,-149892,-150044,-149740,-150154,-149970,-149890,-149832,-150154,-149964,-150050,-150082,-150198,-149892,-150022,-149772,-150056,-150184,-149820,-149818,-150050,-150116,-150188,-149964,-149954,-150112,-150252,-149936,-150038,-149978,-149976,-149962,-150212,-150166,-149946,-150112,-150172,-149964,-150124,-150176,-149976,-149718,-149988,-150052,-149934,-150166,-149802,-149908,-150008,-149960,-149972,-149874,-150080,-150042,-150052,-150084,-149942,-150218,-150184,-150058,-150230,-149870,-149948,-150242,-150214,-150018,-149952,-150020,-150002,-149924,-150080,-150036,-149826,-149964,-149916,-149922,-149924,-150074,-150132,-150086,-150216,-149904,-149812,-150086,-149844,-150156,-150182,-149912,-150080,-150136,-150242,-150104,-150110,-149934,-150012,-150062,-150024,-150040,-150170,-150034,-150104,-150142,-150080,-150230,-150056,-149846,-149994,-150090,-150338,-149984,-150092,-150120,-150224,-150146,-150182,-149996,-149844,-150188,-150250,-150090,-149940,-149958,-150204,-149942,-150064,-150150,-150142,-150224,-150168,-150004,-150112,-149974,-150158,-149992,-150126,-150112,-150196,-149938,-150322,-150198,-149946,-150116,-150112,-149850,-149958,-150150,-150052,-149956,-149970,-150044,-150154,-150122,-149892,-149996,-149906,-150128,-150020,-150262,-150044,-149970,-149922,-150330,-150028,-149982,-150188,-150136,-150236,-149946,-149994,-150056,-150068,-150006,-150074,-150050,-149886,-150014,-149954,-149998,-149970,-150166,-149894,-150198,-149842,-150162,-150012,-150036,-150024,-150176,-150106,-150084,-150114,-150334,-149992,-150138,-150138,-149962,-150128,-150194,-149990,-150178,-149976,-150082,-150050,-149922,-150246,-149992,-150036,-150100,-150244,-149980,-149986,-149964,-150220,-150022,-150132,-150052,-149962,-149964,-149888,-149936,-150154,-150060,-150120,-150014,-149936,-149874,-150184,-150026,-150148,-149906,-150056,-150106,-149954,-150008,-149790,-150020,-150052,-149786,-149966,-149892,-149948,-150152,-149976,-150104,-149916,-150030,-149850,-149992,-149818,-150136,-150028,-150068,-149984,-150004,-150048,-150038,-150254,-150016,-150002,-149982,-150048,-150006,-150110,-150044,-150204,-150252,-150124,-150298,-150044,-150026,-149966,-149878,-149982,-150114,-149964,-150144,-149896,-149838,-150216,-149850,-149988,-149886,-150054,-150024,-149978,-149878,-150102,-149660,-150094,-149924,-150138,-149976,-149836,-149848,-150234,-149988,-149992,-149918,-150182,-149870,-149964,-149980,-150000,-150134,-150056,-150114,-150130,-150142,-149984,-149984,-149882,-150070,-149804,-149824,-149926,-150160,-149980,-149938,-149758,-150122,-150120,-150050,-149954,-150028,-150198,-150150,-150180,-150080,-149994,-150118,-150026,-150108,-150038,-149958,-150020,-150000,-150242,-150232,-150056,-150088,-150186,-150022,-149996,-150276,-150100,-150068,-149922,-150006,-150020,-150098,-150220,-149924,-149978,-149866,-150136,-150020,-150020,-150256,-150064,-150088,-150056,-150128,-150128,-150100,-150004,-150212,-150036,-149960,-150094,-149918,-150250,-149992,-150424,-150000,-150282,-150182,-150314,-150054,-150134,-149874,-150054,-150226,-150158,-150026,-150262,-149996,-150156,-149914,-150236,-150304,-150046,-150004,-150246,-149950,-150152,-150256,-150080,-149864,-150008,-150218,-150096,-150064,-150136,-150166,-150244,-150250,-150106,-150134,-150040,-150290,-150076,-150156,-150184,-150054,-149846,-149960,-150268,-150112,-150160,-150340,-149906,-150096,-150120,-150230,-150152,-149962,-149996,-150154,-150176,-150012,-150228,-150004,-150206,-150180,-150000,-150042,-150138,-150136,-150108,-150120,-150146,-150100,-150120,-149952,-150188,-150310,-150188,-150114,-150132,-150146,-150180,-150074,-150134,-150190,-150400,-150302,-150324,-150142,-150086,-150202,-150260,-150036,-150208,-150072,-150332,-150132,-149950,-150094,-150156,-150198,-150004,-150212,-149974,-150212,-150002,-150108,-150402,-150220,-150322,-150364,-150188,-150148,-150000,-150196,-150068,-150408,-150134,-150278,-150160,-150140,-150244,-150292,-150336,-150190,-150010,-150308,-150026,-150162,-149986,-150008,-150156,-150110,-150050,-150076,-150050,-149994,-149944,-150144,-150028,-150116,-149890,-150058,-150060,-150142,-150216,-150124,-150196,-150122,-150104,-150152,-150046,-150098,-150130,-150100,-150254,-150248,-150374,-149988,-150116,-150104,-149818,-150064,-150110,-150216,-150132,-150176,-150176,-150190,-149974,-150248,-150334,-150136,-150118,-150020,-150158,-150162,-150220,-150046,-149998,-150196,-150272,-150086,-150282,-149910,-150518,-150090,-150290,-150082,-150270,-150108,-150068,-150066,-150076,-150004,-150052,-149968,-150130,-150156,-150082,-149932,-150032,-150136,-149870,-150130,-150054,-150212,-149822,-149824,-149810,-150086,-150050,-150036,-150190,-150046,-149886,-150012,-150166,-149856,-150124,-150098,-149864,-149990,-149934,-150228,-150148,-149824,-150122,-150132,-149984,-150406,-150050,-149952,-149976,-150006,-149930,-150024,-150072,-150162,-150246,-150148,-149974,-150236,-150282,-150112,-150110,-150056,-150276,-150144,-150020,-149880,-150098,-149948,-150096,-150224,-149966,-150036,-150144,-150060,-150120,-149950,-150136,-150056,-150036,-150040,-150138,-150054,-150170,-150050,-150050,-150024,-150222,-150544,-150190,-150136,-150042,-150270,-150230,-149900,-150002,-150006,-150164,-150030,-150158,-150102,-150144,-149922,-150182,-150208,-150080,-150108,-150060,-150020,-150296,-150086,-150244,-150108,-149930,-150170,-150214,-150040,-150124,-150126,-150102,-150116,-150086,-150094,-150092,-150206,-150156,-150052,-150218,-150192,-149926,-150096,-150174,-150206,-150176,-150102,-150282,-150026,-150478,-150226,-150094,-150162,-150054,-150148,-150022,-150102,-150392,-150038,-150182,-150146,-150000,-150144,-150164,-150298,-150090,-150402,-150174,-150326,-150286,-149954,-150180,-150032,-150154,-150020,-150078,-150014,-150220,-150162,-150208,-149942,-150090,-150052,-150320,-150216,-150274,-150190,-149946,-150170,-150186,-150100,-150128,-150132,-150232,-150054,-149960,-150206,-150148,-150108,-150246,-150124,-150250,-150130,-150256,-150214,-150276,-150498,-150352,-150180,-150242,-150110,-150204,-150084,-150256,-150252,-150218,-150050,-149978,-150250,-150194,-150154,-150116,-150248,-150020,-150146,-150210,-150376,-150018,-150292,-150050,-150192,-150230,-150096,-150290,-150314,-150358,-150236,-150238,-150112,-150142,-150128,-150028,-150268,-150160,-149992,-150068,-150228,-150288,-150260,-150172,-150232,-150084,-150316,-150132,-150126,-150234,-150258,-150184,-150290,-150292,-150208,-150292,-150154,-150160,-150130,-150004,-150148,-150074,-150112,-150182,-150042,-150230,-150588,-150200,-149962,-150330,-150258,-150082,-150266,-150164,-150072,-150220,-150092,-150078,-150108,-150216,-150146,-150104,-150126,-150172,-150128,-150250,-150044,-150264,-150326,-150044,-150250,-150116,-150224,-150354,-150256,-150258,-150090,-150246,-150172,-150114,-150146,-150068,-150268,-150080,-150028,-150246,-150182,-150090,-149862,-150164,-150232,-150518,-150138,-150260,-149938,-150012,-150232,-150290,-150218,-150064,-150028,-150140,-150202,-149930,-150152,-150188,-150178,-150140,-150158,-149956,-150056,-150196,-149970,-149854,-150284,-150296,-150110,-150258,-150086,-150138,-150320,-149950,-150392,-150092,-150150,-150272,-150032,-150068,-150150,-150138,-150108,-150190,-150050,-150160,-150160,-150170,-150236,-150326,-150018,-150078,-149926,-150044,-150166,-150386,-150188,-150294,-150164,-149896,-149974,-150246,-150120,-150078,-150014,-150104,-150198,-150086,-150166,-149984,-149990,-150102,-149886,-150150,-150136,-150096,-150228,-150156,-150144,-150206,-150256,-150058,-150336,-150206,-150256,-150084,-150352,-149926,-150360,-150088,-149792,-150044,-150190,-150306,-150046,-150174,-150166,-150082,-150352,-149934,-150096,-150106,-150140,-150242,-150102,-150036,-149938,-149936,-150006,-150214,-150168,-149946,-150124,-150022,-149998,-150022,-150318,-150166,-150274,-150092,-150112,-150218,-150058,-149968,-149986,-149872,-150244,-150000,-150006,-149944,-149792,-150100,-150134,-150044,-150116,-149934,-150264,-150106,-150294,-150052,-150144,-149948,-150162,-150224,-150226,-150268,-150154,-150062,-150390,-149854,-150206,-150124,-150126,-150114,-149846,-150106,-150274,-150108,-150266,-150270,-150176,-150102,-150226,-150176,-149998,-150106,-150126,-150116,-150250,-150072,-150238,-150052,-150142,-150206,-150336,-150212,-150234,-150240,-150288,-150446,-150192,-150088,-150326,-150334,-150332,-150380,-150288,-150256,-149932,-150070,-150096,-149950,-150322,-150256,-150100,-150188,-150112,-150078,-150112,-150144,-150160,-150208,-150238,-150172,-150022,-150246,-150212,-150112,-150212,-150224,-150192,-150016,-150270,-150200,-150062,-149958,-150066,-150226,-150168,-150126,-150174,-150240,-150104,-150152,-150226,-150158,-150010,-150148,-150224,-150214,-150104,-150214,-150160,-150014,-150138,-150146,-150352,-150234,-150194,-149994,-150098,-149982,-149998,-150280,-150478,-149988,-150328,-150252,-150394,-150410,-150186,-150136,-150280,-150396,-150144,-150106,-150342,-150304,-149904,-150282,-150270,-150244,-150318,-150036,-150244,-150206,-150184,-150270,-150248,-150150,-150010,-150236,-150060,-150128,-150114,-150328,-150142,-150172,-150096,-150188,-150230,-150130,-149986,-150196,-150176,-150198,-150116,-150052,-150192,-150208,-150114,-150142,-149970,-150214,-150082,-150356,-150150,-150070,-150202,-150164,-149938,-150134,-150500,-149996,-150064,-149926,-150190,-150316,-150320,-150048,-150392,-150206,-150280,-150054,-150466,-150078,-150138,-149944,-150008,-150170,-150248,-150014,-150150,-149862,-150114,-150102,-150302,-150012,-150170,-150286,-150100,-150304,-150102,-150146,-150050,-150112,-150070,-149786,-150122,-150116,-150172,-150014,-150072,-150134,-150214,-150088,-149856,-149922,-149982,-150104,-149972,-150258,-150136,-150254,-149976,-150356,-150128,-150110,-149996,-149934,-150162,-150004,-150076,-150216,-150276,-149998,-150142,-150086,-150056,-149936,-150238,-149946,-150188,-150294,-149920,-149988,-150098,-149984,-150150,-150302,-150230,-150106,-149930,-150256,-149890,-150120,-150308,-149940,-150122,-150244,-150032,-149850,-150190,-150098,-149962,-149976,-149928,-149902,-150112,-150004,-150190,-150236,-149888,-150006,-149954,-150110,-149994,-150016,-150150,-150164,-149984,-149944,-150068,-150028,-149936,-150074,-150272,-149852,-150054,-149942,-149952,-149964,-150084,-150160,-150066,-150190,-149988,-149974,-149844,-150052,-149912,-149990,-150070,-150140,-150054,-149924,-150096,-150116,-150144,-149944,-149820,-150082,-149910,-150134,-150180,-150120,-150138,-150312,-150198,-150158,-149942,-150228,-149868,-150074,-149950,-150064,-150046,-150108,-149908,-150286,-150174,-150086,-150060,-149910,-150254,-150068,-150254,-149938,-150014,-149990,-149940,-150004,-149946,-150126,-150074,-150088,-150310,-149914,-150020,-150118,-150268,-150090,-150262,-150010,-150266,-149924,-150240,-150128,-150058,-150190,-150044,-150150,-150040,-150070,-149996,-150020,-150096,-150100,-149960,-150060,-150142,-150266,-150232,-150208,-150148,-150118,-150160,-149940,-150000,-150186,-150110,-150088,-150044,-150232,-150198,-149990,-150070,-150282,-150156,-150278,-150192,-149926,-150006,-150336,-150030,-149976,-150118,-150108,-150188,-150072,-149936,-150272,-150210,-149936,-150180,-150096,-150024,-149940,-150346,-149976,-150020,-149992,-150154,-150254,-150228,-150272,-150166,-150256,-149948,-150054,-149976,-150130,-150104,-149892,-149968,-149860,-150286,-150080,-150202,-150082,-150190,-150148,-150138,-150160,-150332,-150066,-150186,-150072,-150124,-150202,-150188,-150326,-150076,-150032,-150052,-149988,-149904,-149876,-150112,-150170,-149830,-150248,-150032,-150164,-149888,-150004,-150060,-150062,-150200,-150116,-150104,-150114,-149952,-149942,-150172,-150092,-150226,-149970,-150254,-150060,-150256,-150032,-150028,-149980,-150050,-149908,-150036,-150206,-150198,-150098,-150130,-149910,-150184,-150176,-150244,-149998,-150222,-150052,-150210,-150080,-150304,-150164,-150102,-150004,-150048,-150222,-150264,-150148,-150288,-150330,-150144,-150322,-150066,-150130,-150036,-149924,-150180,-150250,-150154,-150014,-150144,-150294,-150208,-150128,-149958,-150016,-150414,-149984,-150148,-150166,-150036,-150220,-150080,-150030,-150050,-150320,-150076,-150122,-150272,-150008,-150012,-150348,-149962,-150016,-150146,-150068,-150026,-150142,-150194,-150014,-150192,-150198,-150042,-150136,-150224,-150190,-150164,-150026,-150230,-150154,-150140,-149982,-150216,-150216,-150016,-150210,-150084,-150074,-150296,-150050,-150162,-150198,-150168,-150178,-150500,-150070,-150158,-150170,-150294,-150120,-149996,-150156,-149990,-150172,-150068,-150332,-150072,-150236,-150000,-150162,-150094,-150078,-150164,-150154,-150112,-150072,-149854,-150132,-150154,-150204,-150192,-150040,-150118,-150074,-149812,-150348,-149882,-149928,-150096,-150258,-150160,-150042,-149896,-150050,-150108,-149982,-150196,-150130,-150014,-150290,-150082,-150128,-150326,-150068,-150014,-150012,-150060,-150016,-150144,-150066,-150082,-150010,-150428,-149820,-149984,-150060,-150220,-149948,-150028,-150148,-150034,-149980,-150128,-150310,-149990,-149920,-149996,-150212,-150036,-150088,-150200,-149928,-150118,-150146,-150210,-150116,-150104,-150132,-150216,-150156,-150246,-149908,-149754,-150106,-150020,-150054,-150226,-149998,-150074,-149972,-150092,-149794,-150058,-150120,-150076,-150114,-149896,-150082,-150058,-150218,-150000,-149984,-150134,-150226,-149986,-150266,-150280,-150040,-150098,-150090,-150070,-149918,-149868,-150134,-150214,-150160,-150008,-150186,-149922,-150052,-149994,-150062,-150050,-150206,-150176,-150142,-150008,-149942,-150060,-150218,-150000,-149952,-150048,-150216,-150038,-150102,-150162,-150076,-149896,-150034,-149980,-150080,-150352,-149914,-149844,-150046,-150104,-150146,-150012,-150148,-150204,-150236,-149908,-150032,-149984,-150040,-150120,-150004,-150090,-150042,-150176,-150246,-150128,-150250,-150182,-149910,-149952,-150266,-150200,-149846,-150238,-149990,-150160,-150070,-150016,-150098,-149954,-150134,-150140,-150236,-150052,-150016,-149896,-150026,-150078,-150120,-150090,-150164,-150046,-150132,-150192,-150222,-150188,-150016,-150434,-150180,-150064,-149930,-150050,-150358,-150200,-150130,-150044,-150066,-150220,-150128,-149876,-150112,-150018,-150076,-150142,-150102,-150124,-150168,-150210,-150036,-150170,-150452,-150082,-150210,-150168,-150342,-150168,-150124,-150236,-150258,-150024,-150292,-150358,-150308,-150192,-150156,-150160,-150400,-150236,-150148,-149970,-150144,-150144,-149958,-150148,-150360,-150288,-150238,-150288,-149912,-150082,-150100,-150298,-150068,-150206,-150250,-149900,-150020,-150302,-150294,-150246,-150198,-150154,-150256,-150316,-150174,-150192,-150320,-150152,-150340,-150176,-150100,-150358,-150354,-150368,-150408,-150034,-149920,-150006,-150004,-150452,-150210,-150206,-150208,-150128,-150148,-150112,-150176,-150072,-150222,-150130,-150368,-150356,-150254,-150194,-150214,-150328,-150282,-150500,-150388,-150026,-150378,-150438,-150260,-150422,-150186,-150228,-150208,-150172,-150492,-150206,-150294,-150082,-150368,-150372,-150118,-150478,-150262,-150550,-150348,-150142,-150178,-150380,-150220,-150412,-150170,-150272,-150372,-150278,-150496,-150142,-150160,-150284,-150380,-150218,-150290,-150164,-150398,-150194,-150338,-150354,-150114,-150304,-150118,-150310,-150360,-150156,-150418,-150376,-150146,-150376,-150262,-150582,-150540,-150232,-150384,-150278,-150070,-150166,-150366,-150192,-150134,-150458,-150168,-150290,-150348,-150342,-150264,-150140,-150312,-150302,-150338,-150116,-150320,-150056,-150130,-150252,-150104,-150482,-150300,-150170,-150280,-150064,-150224,-150380,-150148,-150350,-150478,-150382,-150138,-150256,-150394,-150216,-150148,-150180,-150290,-150372,-150272,-150198,-150298,-150186,-150244,-150428,-150244,-150424,-150332,-150296,-150288,-150336,-150254,-150198,-150202,-150384,-150262,-150156,-150402,-150056,-150274,-150244,-150274,-150116,-150074,-150468,-150476,-150064,-150162,-150200,-150056,-150360,-150076,-150388,-150242,-150224,-150264,-150254,-150348,-150386,-150254,-150304,-150050,-150320,-150282,-150562,-150356,-150260,-150174,-150132,-150188,-150264,-150066,-150336,-150092,-150158,-150086,-150146,-150086,-150396,-150126,-149992,-150358,-150230,-150300,-150158,-150304,-150216,-150086,-149972,-150302,-150088,-150228,-150138,-150186,-150506,-150296,-150324,-150166,-150360,-150116,-150504,-150154,-150348,-150030,-150354,-150150,-150338,-150066,-150300,-150134,-150414,-150154,-150268,-150294,-150332,-150200,-150126,-150168,-150440,-150118,-150148,-150260,-150450,-150226,-150224,-150194,-150200,-150376,-150342,-150258,-150478,-150278,-150406,-150388,-150060,-150300,-150342,-150326,-150308,-150318,-150454,-150388,-150214,-150144,-150116,-150116,-150372,-150236,-150350,-150350,-150432,-150138,-150030,-150262,-150502,-150478,-150340,-150306,-150480,-150010,-150296,-150238,-150336,-150306,-150198,-150294,-150308,-150352,-150366,-150458,-150242,-150336,-150370,-150342,-150412,-150262,-150204,-150426,-150352,-150344,-150192,-150220,-150326,-150310,-150396,-150262,-150286,-150470,-150138,-150268,-150186,-150288,-150422,-150320,-150378,-150258,-150478,-150400,-150310,-150310,-150064,-150186,-150158,-150354,-150286,-150172,-150168,-150144,-150246,-150260,-150414,-149934,-150228,-150166,-150448,-150222,-150464,-150312,-150374,-150288,-150086,-150154,-150296,-150392,-150242,-150096,-150106,-150248,-150412,-150142,-150254,-150316,-150230,-150132,-150282,-150222,-150362,-150216,-150268,-150366,-150102,-150308,-150336,-150308,-150380,-150226,-150306,-150352,-150302,-150350,-150314,-150254,-150288,-150404,-150232,-150454,-150198,-150118,-150342,-150300,-150426,-150274,-150420,-150422,-150268,-150540,-150394,-150264,-150196,-150424,-150100,-150392,-150440,-150348,-150364,-150386,-150274,-150166,-150362,-150242,-150348,-150414,-150206,-150078,-150232,-150188,-150310,-150348,-150322,-150576,-150230,-150012,-150270,-150370,-150270,-150156,-150340,-150312,-150436,-150468,-150210,-150534,-150250,-150340,-150376,-150252,-150370,-150350,-150392,-150158,-150332,-150246,-150426,-150262,-150336,-150164,-150272,-150292,-150300,-150252,-150194,-150220,-150260,-150304,-150276,-150212,-150406,-150124,-150272,-150246,-150248,-150284,-150362,-150214,-150360,-150328,-150420,-150386,-150412,-150238,-150356,-150310,-150508,-150276,-150294,-150144,-150144,-150292,-150284,-150408,-150054,-150174,-150266,-150236,-150238,-150318,-150332,-150390,-150382,-150292,-150354,-150244,-150316,-150330,-150304,-150330,-150236,-150392,-150286,-149942,-150298,-150224,-150270,-150216,-150292,-150300,-150348,-150386,-150362,-150192,-150120,-150030,-149948,-150132,-150304,-150310,-150306,-150204,-150296","-927,-929,-928,-930,-931,-927,-931,-933,-935,-936,-935,-939,-939,-941,-939,-936,-934,-933,-926,-926,-920,-927,-928,-931,-929,-930,-932,-935,-933,-934,-939,-941,-934,-932,-931,-935,-940,-932,-937,-937,-939,-936,-938,-941,-941,-935,-933,-930,-927,-928,-931,-931,-930,-924,-927,-932,-932,-930,-932,-935,-934,-934,-934,-940,-940,-937,-939,-935,-933,-930,-935,-935,-931,-932,-929,-929,-936,-932,-931,-933,-937,-934,-930,-932,-929,-931,-936,-935,-929,-929,-930,-926,-928,-928,-931,-934,-929,-930,-930,-934,-936,-933,-933,-934,-934,-934,-934,-930,-937,-937,-932,-927,-927,-927,-928,-931,-930,-932,-933,-931,-933,-930,-933,-931,-924,-924,-932,-932,-930,-934,-938,-934,-937,-936,-929,-929,-937,-935,-931,-931,-931,-934,-936,-939,-937,-929,-929,-931,-933,-935,-935,-931,-929,-929,-926,-925,-925,-925,-929,-926,-930,-931,-925,-924,-931,-931,-937,-936,-929,-935,-936,-935,-934,-934,-934,-930,-920,-930,-936,-934,-934,-933,-930,-931,-935,-935,-933,-930,-927,-941,-939,-940,-938,-932,-937,-934,-939,-932,-931,-930,-926,-932,-933,-926,-931,-933,-937,-935,-931,-927,-927,-928,-927,-930,-931,-926,-928,-928,-929,-932,-933,-935,-935,-928,-930,-933,-931,-934,-936,-938,-934,-938,-932,-932,-929,-932,-931,-929,-935,-939,-936,-931,-933,-933,-934,-930,-929,-932,-935,-934,-938,-937,-937,-935,-936,-935,-932,-933,-932,-933,-933,-935,-939,-935,-933,-933,-939,-936,-933,-931,-925,-927,-932,-932,-931,-927,-934,-930,-930,-934,-933,-934,-934,-932,-930,-934,-935,-930,-934,-930,-931,-927,-928,-934,-930,-931,-929,-933,-937,-936,-936,-929,-929,-928,-925,-926,-930,-930,-930,-930,-932,-938,-939,-936,-936,-932,-930,-931,-931,-936,-938,-931,-932,-925,-930,-933,-937,-937,-932,-933,-933,-932,-932,-930,-933,-935,-938,-934,-933,-934,-932,-931,-934,-930,-932,-927,-928,-928,-930,-929,-930,-935,-935,-934,-936,-933,-935,-931,-932,-937,-942,-938,-938,-931,-932,-934,-925,-930,-930,-931,-933,-932,-933,-932,-931,-931,-929,-935,-935,-931,-935,-931,-934,-926,-931,-930,-931,-934,-936,-930,-928,-931,-928,-934,-933,-930,-932,-926,-926,-934,-930,-929,-927,-927,-934,-926,-932,-931,-929,-926,-933,-932,-936,-939,-934,-932,-932,-929,-931,-930,-930,-930,-935,-933,-934,-936,-933,-935,-936,-933,-937,-936,-935,-938,-936,-932,-934,-934,-931,-930,-926,-932,-929,-931,-929,-932,-936,-936,-934,-936,-934,-934,-934,-933,-931,-929,-928,-931,-931,-931,-933,-930,-928,-934,-933,-934,-930,-931,-936,-931,-930,-931,-931,-932,-929,-930,-935,-934,-928,-928,-931,-936,-937,-926,-925,-928,-934,-932,-931,-929,-925,-923,-926,-928,-937,-937,-932,-932,-930,-934,-934,-932,-929,-924,-925,-929,-929,-929,-931,-933,-930,-931,-935,-929,-937,-934,-933,-931,-933,-933,-929,-928,-933,-930,-932,-936,-936,-936,-931,-934,-928,-929,-926,-925,-927,-931,-936,-929,-930,-930,-933,-930,-930,-929,-929,-932,-928,-930,-933,-937,-930,-925,-931,-933,-935,-935,-936,-932,-935,-932,-931,-934,-933,-933,-928,-931,-936,-929,-931,-928,-930,-930,-929,-927,-924,-924,-927,-931,-929,-929,-929,-932,-935,-933,-932,-933,-931,-931,-927,-935,-933,-937,-933,-928,-931,-932,-935,-934,-932,-926,-930,-932,-928,-934,-932,-931,-932,-931,-929,-927,-932,-930,-933,-932,-930,-932,-935,-931,-932,-934,-933,-932,-930,-935,-935,-930,-928,-931,-928,-931,-929,-926,-932,-929,-929,-935,-935,-930,-927,-929,-925,-926,-929,-926,-935,-929,-930,-926,-926,-926,-928,-930,-934,-898,-914,-921,-935,-933,-931,-932,-930,-934,-929,-930,-932,-935,-929,-931,-931,-930,-934,-936,-936,-931,-931,-934,-931,-929,-933,-931,-929,-930,-930,-936,-936,-933,-927,-934,-935,-934,-932,-933,-930,-931,-938,-938,-938,-938,-935,-931,-924,-923,-931,-936,-936,-932,-932,-931,-936,-937,-936,-934,-937,-935,-935,-934,-934,-938,-932,-935,-930,-928,-929,-931,-929,-926,-931,-928,-931,-933,-933,-926,-926,-931,-929,-932,-935,-926,-928,-927,-932,-930,-925,-926,-930,-927,-929,-925,-924,-931,-935,-936,-934,-934,-940,-932,-933,-932,-935,-936,-936,-933,-933,-930,-930,-932,-929,-933,-934,-933,-930,-935,-933,-931,-925,-927,-931,-934,-931,-927,-928,-927,-927,-934,-931,-933,-926,-930,-932,-936,-933,-937,-934,-934,-933,-939,-933,-928,-925,-927,-929,-929,-929,-927,-930,-937,-933,-931,-930,-930,-932,-931,-936,-935,-937,-936,-934,-930,-934,-929,-930,-931,-934,-930,-931,-931,-935,-936,-935,-936,-933,-930,-931,-931,-930,-931,-928,-935,-936,-934,-934,-935,-934,-933,-935,-937,-935,-931,-930,-930,-932,-925,-925,-932,-931,-932,-935,-932,-931,-934,-934,-934,-928,-925,-926,-932,-933,-932,-934,-936,-934,-936,-933,-928,-929,-933,-931,-933,-934,-935,-932,-932,-929,-935,-935,-934,-930,-931,-930,-936,-937,-930,-929,-929,-935,-933,-934,-933,-929,-923,-928,-931,-932,-937,-935,-931,-936,-937,-937,-937,-936,-931,-933,-930,-930,-935,-935,-932,-930,-929,-929,-931,-930,-932,-929,-927,-931,-932,-928,-928,-931,-933,-930,-932,-928,-934,-937,-929,-933,-935,-929,-934,-932,-931,-929,-930,-923,-924,-929,-939,-939,-935,-928,-931,-929,-928,-926,-931,-936,-938,-936,-935,-927,-932,-933,-939,-934,-937,-936,-935,-933,-928,-931,-936,-937,-928,-935,-932,-930,-935,-932,-930,-929,-929,-930,-937,-930,-930,-929,-935,-935,-931,-934,-938,-936,-931,-929,-930,-931,-932,-928,-934,-934,-932,-930,-933,-937,-935,-932,-931,-934,-932,-936,-935,-931,-925,-929,-935,-932,-931,-934,-933,-933,-940,-935,-936,-936,-934,-930,-932,-934,-936,-931,-936,-933,-933,-926,-928,-928,-927,-929,-927,-932,-929,-935,-936,-937,-935,-933,-932,-928,-933,-933,-935,-933,-927,-933,-935,-938,-934,-934,-928,-931,-930,-934,-930,-934,-930,-932,-930,-927,-931,-936,-934,-934,-938,-936,-932,-929,-928,-934,-928,-927,-923,-931,-937,-937,-937,-936,-937,-934,-932,-928,-931,-933,-932,-935,-935,-930,-928,-931,-928,-930,-924,-928,-927,-927,-934,-935,-932,-934,-931,-927,-925,-927,-930,-930,-935,-935,-938,-935,-931,-929,-935,-928,-930,-928,-926,-934,-930,-931,-935,-931,-934,-934,-934,-938,-938,-934,-937,-930,-932,-930,-932,-931,-933,-934,-933,-932,-933,-931,-925,-931,-931,-937,-939,-936,-934,-934,-931,-929,-930,-928,-929,-935,-933,-934,-934,-928,-928,-931,-927,-930,-927,-934,-936,-933,-935,-934,-930,-935,-932,-933,-933,-937,-936,-929,-931,-929,-935,-934,-935,-934,-933,-935,-935,-935,-936,-930,-935,-938,-934,-938,-938,-935,-934,-934,-932,-929,-929,-931,-929,-932,-932,-930,-928,-930,-926,-927,-927,-927,-928,-931,-931,-927,-933,-936,-933,-934,-937,-939,-940,-937,-935,-932,-932,-931,-931,-928,-931,-932,-932,-938,-934,-934,-933,-937,-932,-934,-938,-934,-934,-926,-928,-925,-931,-929,-930,-928,-931,-929,-933,-930,-930,-931,-928,-937,-939,-934,-928,-929,-931,-929,-929,-935,-932,-935,-930,-932,-932,-929,-933,-935,-933,-930,-936,-937,-937,-930,-930,-932,-930,-930,-929,-931,-942,-944,-944,-940,-940,-933,-937,-939,-936,-932,-935,-933,-930,-929,-932,-936,-936,-932,-931,-933,-930,-934,-935,-934,-935,-934,-931,-925,-933,-933,-933,-929,-936,-935,-932,-931,-933,-934,-930,-933,-933,-928,-929,-931,-930,-928,-933,-927,-928,-932,-933,-930,-932,-932,-929,-932,-931,-928,-930,-930,-930,-933,-933,-933,-930,-930,-926,-928,-923,-939,-937,-928,-932,-932,-929,-932,-931,-931,-929,-933,-934,-934,-931,-931,-930,-925,-931,-933,-931,-929,-930,-930,-932,-929,-933,-934,-933,-932,-935,-937,-934,-935,-934,-929,-929,-933,-934,-930,-932,-929,-928,-927,-928,-928,-933,-930,-933,-936,-937,-930,-930,-929,-931,-933,-935,-935,-933,-929,-935,-932,-937,-931,-931,-933,-936,-939,-933,-932,-931,-932,-933,-931,-930,-929,-930,-928,-930,-934,-931,-929,-928,-928,-927,-934,-929,-932,-927,-928,-931,-933,-930,-930,-930,-934,-934","-3,-7,-3,-6,-4,-6,-6,-3,-3,-6,-4,-6,-6,-2,-2,-3,-6,-6,-5,-2,-4,-4,-7,-7,-3,-1,-3,-1,-2,-2,-4,-7,-6,-4,-4,-3,-8,-8,-8,-5,-5,-5,-6,-3,-3,0,-1,-4,-7,-4,-3,-2,-4,-4,-3,-8,-8,-10,-6,-5,-4,-6,-4,-4,-7,-2,-2,-1,-3,-5,-4,-5,-2,-8,-4,-2,0,-6,-5,-6,-4,-1,-3,-2,-2,-6,-2,-4,-5,-3,-6,-10,-6,-6,-7,-6,-5,-3,-2,-3,-5,-4,-1,-1,3,3,3,-3,-3,-8,-9,-7,-6,-6,-7,-6,-5,-3,-2,-1,-3,-3,-4,-4,-4,-4,-5,-2,-2,-8,-8,-5,-5,-2,-3,-3,-8,-5,-3,-3,-2,-3,-5,-3,2,0,-2,-3,-2,-3,-3,-4,-2,-2,-1,-2,-2,-3,-8,-5,-9,-7,-2,-2,-2,-2,-5,-7,-7,-3,-1,-5,-3,-3,-4,0,-1,-2,-1,-1,-1,-1,0,-4,-4,-4,-5,-5,-4,-4,-5,-3,-4,-4,-7,-7,-7,-4,-5,-5,-5,-3,-6,-3,-2,-5,-1,-3,-6,-2,-5,-4,-3,-2,-4,-1,-3,-3,-4,-4,-2,-2,-3,-6,-6,-2,-2,-6,-3,-7,1,-3,-4,-4,-5,-2,-2,-3,-6,-6,-3,-4,-4,-2,-3,-3,-2,-2,-5,1,-1,1,-1,-3,-3,-1,-3,0,1,1,-4,-4,-6,-5,-5,-3,-4,-6,-2,3,-2,-3,-2,-2,-5,-4,-4,-6,-4,-4,-3,-1,-1,-7,-3,-2,-3,-7,-2,0,-3,0,-5,-1,-5,-3,-5,-7,-10,-5,-5,-6,-6,-2,-7,-7,-8,-7,-4,-4,-6,-4,-1,-6,-1,-1,-5,-5,-5,-6,-3,-2,-5,-3,2,-2,-4,-5,-3,-4,-4,-2,-3,-1,-2,-3,-2,-2,-3,-4,-3,-4,-7,-6,-2,-1,-2,0,0,0,-2,-4,-3,-6,-2,-4,-1,-3,-2,-3,-3,-5,-5,-7,-4,-2,1,-7,-6,-5,-3,-4,-4,-6,-6,-4,-1,-5,-5,-3,-4,-1,-1,-5,-3,0,-2,-4,-5,-5,-5,-1,-3,-1,-3,-2,-3,-1,-1,-3,-6,-4,-3,-4,-6,-10,-6,-2,3,-1,-6,-7,-2,-5,-9,-5,-3,-2,-2,-5,-4,-1,-4,-2,2,-2,-2,-3,-6,-5,-5,-5,-3,-4,-5,-9,-9,-5,-5,-4,-3,-5,-2,-2,-2,-5,-6,-6,-6,-1,-1,-3,-2,-3,-2,-3,-2,-1,-3,-3,-4,-4,-1,1,1,-2,-2,-2,-1,-7,-8,-7,-4,-7,0,0,-3,-4,0,0,-2,-2,-2,1,2,-3,-4,-4,-4,-6,-5,-3,-4,-5,-5,-5,-5,-4,-3,-7,-2,1,-4,-5,-3,-3,-4,-4,-4,-7,-6,-2,-1,-3,-3,-4,-3,-4,-2,-2,-6,-5,-2,-1,1,0,-5,-5,-3,-6,-3,0,-2,-4,-6,-4,-3,-4,-2,-2,-4,-5,-6,-5,-4,-4,-6,-2,-1,0,1,0,-2,1,-2,-2,-6,-4,-4,0,-3,-1,-3,-4,-5,-5,-3,-2,-5,-3,-2,-4,0,-1,-4,-4,-4,-2,-2,-2,-3,-6,-4,-4,-8,-12,-6,-6,-4,-5,-7,-2,-5,-5,-9,-9,-5,-6,-4,-2,-3,-4,-1,-1,-5,-6,-4,-8,-8,-4,-7,-9,-4,-5,-7,-4,-1,-3,1,0,0,-1,-5,-1,-7,-7,-6,-4,-3,-1,-3,-2,-1,-1,-4,-7,-7,-6,-7,-6,-5,-6,-8,-7,-8,-7,-8,-6,-2,-2,-3,-6,-4,-1,-3,-2,-5,-7,-4,-2,-4,-2,0,-2,-5,-5,-3,-2,1,0,-5,-2,-2,-3,-4,-3,-2,-1,-5,-3,-2,-2,-1,-3,-3,-4,0,-1,-1,-3,-2,0,-3,-2,-4,2,2,-2,-3,-8,-5,-3,-3,-4,-4,-7,-3,-8,-8,-8,-5,-2,-1,-1,-3,-4,-4,-6,-3,-6,-2,0,-1,-6,-3,-5,-1,-3,-4,0,-1,-1,-1,-7,-2,-3,1,-1,-1,-3,-4,-4,-5,-5,-7,-6,-5,-3,-7,-6,-6,-6,0,-2,0,-4,-5,-3,-4,-6,-7,-6,-5,-7,-7,-8,-5,-7,-8,-4,-1,-1,-1,0,-2,-2,-7,-2,-3,-4,0,0,0,-4,-4,-4,-7,-3,-5,1,-2,-2,-5,-6,-5,-3,-2,-4,-4,-5,-1,-1,-4,-1,-1,-2,1,1,-2,-2,-5,-5,-3,-3,-1,-1,-4,-5,-3,-7,-10,-7,-6,-2,-3,-3,-2,-1,-8,-7,-8,-4,-8,-8,-1,-3,-2,-1,-6,-4,-5,-1,0,-3,-8,-7,-4,-4,0,0,-3,-4,-2,-3,-1,-5,-3,-6,-5,1,2,2,-2,-2,-4,-5,-1,-3,-1,-2,0,-3,1,1,1,0,-3,-3,0,-5,-7,-7,-6,-3,-3,-2,-1,1,0,-1,-2,-4,-4,-4,-3,-3,-3,-5,-5,-2,1,-2,-2,-5,-3,-5,-5,-5,-2,-2,1,0,-3,-2,1,-2,-4,-3,-4,-1,-1,-7,-2,-7,-7,-5,-3,-2,-4,-4,-5,-1,-2,1,1,2,-1,-4,-3,-4,-4,-4,-3,-2,-3,-8,-6,-8,-8,-9,-3,-6,-7,-6,-6,-3,-4,-5,-3,-2,-3,-3,-2,-6,-4,-9,-8,-5,-2,-2,-6,-4,-2,-5,-2,-6,-6,-7,-6,-6,-6,-4,-2,-3,-4,-6,-4,-3,-8,-5,-5,1,4,-5,-7,-4,-2,-3,0,-8,-2,-4,-4,-6,-4,-3,-7,-2,-4,-1,0,-2,-1,-3,-6,-5,-7,-9,-9,-7,-6,-8,-3,-6,-4,-4,-4,-7,-5,-5,-3,-4,-3,-4,-4,-2,-7,-2,-2,0,-1,-3,-1,-1,-3,-2,-7,-6,-10,-8,-10,-8,-3,-4,-3,-6,-4,-5,-7,-4,-5,-3,-2,-2,0,-3,0,-4,-3,-1,-4,-10,-7,-2,-2,-5,-5,-5,-6,-9,-7,-6,-3,3,-4,-3,-3,-8,-2,-4,-2,-4,-4,-3,-8,-10,-6,-6,-4,0,-3,-5,-2,-4,-4,-3,-3,-2,3,0,-7,-7,-8,-3,-4,-3,-6,-3,-3,-4,0,-2,-1,-1,-3,-8,-1,1,-2,-2,-5,-3,-4,-4,-4,-4,-4,-1,-5,-5,-2,0,-2,-3,-4,-6,-4,-4,-5,-1,-5,-5,-7,-3,0,-4,-3,-8,-5,-1,-5,-5,-7,-6,-6,-5,-3,-3,-3,-2,-2,-5,-5,-2,-2,-1,-1,-3,-4,-4,-3,-6,-2,-2,-3,1,0,-1,-3,-2,-5,-8,-4,-1,1,1,0,-2,0,-3,-4,-1,-2,-2,-2,-1,-1,-2,-1,-5,-3,-1,-2,-5,-5,-5,-3,-2,0,0,-3,-4,-4,1,-3,-3,0,2,1,-3,-2,-5,-2,-4,-4,-5,-1,-4,0,2,-3,-5,-4,-7,-6,-6,-6,-2,-2,-5,-3,-3,-2,-4,-5,1,-1,-1,-2,3,0,-4,-3,-3,-4,-3,-3,-4,2,-3,-3,-2,-1,-4,-3,-2,-3,-8,-3,-3,-6,-5,-7,-2,-3,-4,-6,-6,-3,-3,-8,-7,-8,-7,-4,-6,-5,-3,-5,-5,-5,-3,-8,-8,-3,-1,-5,-6,-3,-6,-9,-9,-4,-2,-1,1,0,-7,-8,-6,-4,-1,0,-1,-3,-8,-5,-3,0,-3,-1,-3,-5,-4,-1,1,0,1,-2,-1,-4,-3,-2,-2,-6,-9,-9,-4,-4,-3,-6,-5,-3,-4,-8,-4,-2,-2,-5,-6,-6,-5,-4,-5,-5,-5,-7,-4,-6,-6,-4,-6,-2,-5,-6,-5,-5,-1,-5,-3,-4,-5,-5,-5,-5,-4,-4,-2,-6,-4,1,-2,0,0,-1,-1,-5,-1,-3,0,-2,-1,-1,-5,-4,-3,0,-5,-5,-2,-4,-5,1,2,0,-3,-2,-4,-3,-2,-2,-6,-6,-3,-5,-1,-3,-6,-7,-6,-4,-4,-4,-3,-2,-6,-4,-4,-4,-2,-1,-3,-6,-3,-4,-2,-2,-7,-4,-6,-7,-5,-2,-1,-7,-4,-4,-8,-5,-5","216,215,218,221,226,234,226,211,221,232,222,221,221,222,227,229,206,209,215,213,188,206,225,227,224,230,220,220,229,216,231,231,220,222,222,245,245,240,230,242,233,222,220,221,221,223,219,197,214,218,227,209,215,228,216,220,220,222,232,226,220,223,223,217,202,204,229,212,211,202,225,218,215,224,222,229,209,200,204,219,226,225,225,223,224,228,232,234,225,238,233,234,227,227,214,203,207,227,229,242,242,246,249,240,225,225,209,232,247,189,190,201,206,220,233,229,219,220,222,221,220,226,234,238,213,213,222,212,224,225,218,225,237,237,227,209,205,215,206,208,216,217,214,214,203,217,226,218,218,217,206,209,222,222,218,208,225,225,218,217,228,224,216,225,233,233,222,214,218,218,220,208,203,203,226,239,235,219,214,216,214,200,218,219,230,230,228,235,230,231,216,215,220,209,213,220,220,219,225,213,223,207,216,232,212,216,216,225,229,226,207,216,226,222,212,222,218,218,227,223,218,210,202,211,207,192,206,214,215,206,208,226,234,234,219,195,213,214,213,218,216,223,225,240,225,218,218,215,218,197,224,233,237,235,232,224,212,218,214,203,205,202,216,229,223,223,205,215,224,222,228,213,217,213,219,210,217,214,208,220,211,223,223,225,228,219,230,221,213,219,217,207,214,211,211,206,209,222,235,233,234,238,238,207,220,215,228,225,217,213,196,223,221,240,204,214,219,222,222,232,228,237,232,232,225,244,231,216,218,219,219,223,224,233,227,230,236,232,228,240,213,219,230,225,225,216,215,229,210,209,218,212,228,217,219,210,222,242,234,233,229,213,213,234,238,224,216,234,239,225,211,220,233,221,220,222,212,195,195,199,202,218,216,208,216,220,216,202,222,204,206,224,217,207,202,199,189,195,195,210,215,230,214,212,235,222,238,227,219,222,221,231,200,210,214,213,220,221,230,228,222,225,218,237,214,228,223,222,212,212,211,217,218,225,218,208,216,208,221,226,236,225,226,230,216,201,213,213,218,230,236,227,226,218,226,226,234,229,235,235,211,215,220,232,233,239,237,230,237,229,235,218,215,219,223,232,232,232,217,217,204,217,219,239,236,243,234,234,229,225,223,224,224,215,206,206,226,218,214,211,211,211,226,197,209,230,226,226,218,221,195,209,212,208,214,228,231,226,231,229,225,229,224,222,223,222,221,221,221,223,229,225,202,213,231,232,212,211,211,211,222,225,225,227,232,223,216,236,237,219,217,224,229,232,238,238,226,228,224,216,224,224,218,213,227,208,211,206,215,205,203,216,211,222,223,223,210,218,214,224,211,216,213,225,208,220,215,215,222,217,214,213,196,202,224,217,226,229,222,232,207,214,217,221,218,216,216,226,238,221,232,228,239,231,234,234,224,224,233,206,219,228,235,237,219,221,216,222,228,231,221,208,220,219,227,224,224,228,235,207,205,210,210,225,218,219,222,218,214,203,205,213,216,210,204,223,232,233,227,214,223,215,221,220,217,227,230,217,198,222,227,211,211,220,231,210,193,225,234,213,222,222,229,220,220,221,224,211,207,217,221,221,232,228,219,218,218,231,217,209,240,216,229,224,224,226,225,230,224,210,218,210,214,230,232,219,219,224,222,228,219,232,234,235,239,225,225,218,205,213,225,230,230,232,225,233,215,220,223,222,214,213,218,218,208,193,204,207,204,214,225,216,225,225,213,202,208,204,218,241,221,211,228,224,224,205,209,215,208,219,220,214,228,230,224,216,219,205,208,209,205,210,243,224,211,206,197,203,206,224,219,222,214,206,220,227,219,214,212,224,218,218,221,216,220,236,219,222,204,204,185,213,233,239,232,223,216,223,222,228,220,211,228,217,223,223,254,248,240,201,212,211,223,223,243,242,227,219,227,245,239,232,228,239,236,226,230,209,206,206,212,215,224,225,228,231,233,226,226,225,220,220,221,221,224,212,218,213,219,221,216,215,226,229,235,214,208,221,206,215,224,224,227,216,207,237,236,225,230,233,215,206,205,205,219,222,221,233,222,230,220,209,210,215,212,211,222,220,215,215,228,226,230,216,234,226,211,221,209,216,212,224,233,222,220,211,196,204,216,216,220,217,213,214,201,207,214,192,190,207,188,195,208,233,228,230,236,245,226,214,223,224,224,213,220,221,221,231,223,217,220,224,222,232,221,230,227,229,222,232,226,234,229,220,227,224,231,221,223,253,236,223,246,234,224,228,214,208,225,213,213,233,229,229,219,210,232,232,226,216,217,227,226,231,216,209,212,212,211,224,215,215,219,227,203,211,218,209,194,201,213,222,215,210,215,212,211,219,219,220,223,231,216,229,219,205,199,211,211,231,228,231,219,220,229,215,220,222,236,232,228,208,200,219,230,228,232,233,222,225,224,213,223,212,218,230,227,231,216,217,228,220,202,215,215,209,206,201,214,218,215,208,225,196,210,215,215,192,195,210,223,228,230,216,208,222,221,217,209,214,220,214,211,223,225,230,230,224,224,213,213,207,216,207,230,208,235,228,228,232,238,223,214,215,214,217,217,218,213,217,231,236,224,229,229,228,225,216,229,220,208,209,217,218,221,227,224,222,224,217,218,215,225,208,200,218,218,219,219,213,232,205,208,216,212,223,223,223,229,220,211,233,222,227,244,242,226,214,230,233,229,231,231,231,216,209,221,205,219,222,216,234,222,217,226,226,230,243,221,246,225,218,221,221,226,218,221,206,202,206,217,214,225,208,200,219,208,216,229,229,227,227,212,212,229,225,228,226,214,212,216,229,235,224,241,221,222,218,215,218,215,224,233,215,222,213,201,210,215,220,211,211,223,223,228,228,224,213,232,212,230,218,220,220,215,218,232,229,222,218,203,219,222,216,237,235,229,231,223,223,222,222,209,218,232,228,228,227,211,212,213,214,213,212,222,236,219,219,221,221,225,220,222,210,236,228,226,232,222,221,228,228,219,212,216,222,229,224,233,234,243,215,218,221,231,213,219,219,231,226,215,211,201,215,230,224,224,222,223,215,230,232,218,214,213,211,211,212,212,215,230,223,228,220,211,227,215,218,205,215,215,224,236,207,210,199,204,203,214,218,230,209,217,214,228,237,236,224,216,217,219,220,221,197,203,207,207,215,208,213,228,224,219,223,205,207,216,215,222,223,236,236,224,221,215,220,215,225,225,226,235,238,231,228,224,233,222,237,239,241,241,234,222,224,226,223,229,218,210,207,221,220,231,221,221,223,224,207,206,226,223,222,218,204,214,225,219,203,224,223,233,243,232,222,234,234,234,234,227,220"
