"ppg","acc_x","acc_y","acc_z"
"12143263,12110725,12066559,12034360,12017231,12015686,12001849,11976213,11948067,11920691,11896752,11861611,11834994,11809861,11792919,11779645,11766873,11753222,11746945,11737807,11747532,11779864,11819560,11861859,11899755,11950771,12047516,12111542,12173515,12229777,12288967,12337860,12374297,12409488,12428392,12464140,12481287,12505867,12522040,12527809,12515251,12491824,12468729,12455642,12452272,12452170,12453681,12462894,12482039,12501088,12524174,12550537,12563375,12563871,12562429,12564348,12574193,12598984,12621054,12648039,12664752,12678776,12698492,12700182,12676415,12660410,12641624,12624433,12602030,12566736,12526766,12483857,12444730,12409625,12379356,12352192,12329464,12312402,12301747,12295228,12290861,12288362,12288431,12288081,12284337,12269182,12246064,12217962,12189586,12163653,12145037,12135797,12129135,12122446,12117890,12116260,12117379,12120782,12125901,12131592,12137434,12131634,12114274,12091837,12067966,12045332,12028269,12021400,12019908,12024370,12030462,12038165,12046722,12056866,12067309,12077716,12087050,12084720,12071462,12052788,12033312,12014858,12000713,11997123,12001046,12007803,12016726,12025575,12036069,12045324,12055134,12064424,12072308,12072471,12058879,12037663,12016583,11998163,11984351,11978882,11980648,11983157,11987619,11993000,12000456,12008580,12016966,12025479,12034044,12042091,12043107,12032236,12016958,12000424,11985614,11976323,11976895,11982295,11988104,11994793,12003050,12012196,12021776,12032082,12042294,12052839,12063231,12070192,12064707,12051388,12036391,12022357,12011250,12008137,12012027,12015890,12021427,12028465,12037339,12046894,12056927,12067188,12076839,12087537,12096443,12095034,12085259,12073928,12063674,12056823,12057379,12062188,12067070,12073111,12080021,12088704,12098030,12107799,12116773,12125799,12134868,12142103,12139039,12129221,12117541,12107140,12098747,12097090,12101843,12107294,12112167,12118734,12126457,12134594,12142828,12151829,12160881,12170562,12179340,12178643,12171296,12160249,12148082,12138288,12132215,12133562,12137735,12142648,12148278,12154848,12162226,12170042,12178120,12186506,12195430,12204773,12210240,12205591,12195388,12183411,12171918,12163387,12161025,12164037,12167780,12171296,12177480,12183478,12191182,12199100,12206735,12214303,12222782,12230980,12238377,12236500,12228234,12216443,12205123,12195765,12190849,12192998,12197641,12202554,12207886,12214540,12222083,12229753,12236654,12244383,12252138,12259620,12266881,12266478,12258017,12247737,12237293,12228788,12225069,12227919,12231312,12235622,12239998,12245877,12252172,12259304,12265941,12272980,12279992,12287200,12292294,12288055,12278577,12266829,12256608,12248155,12245646,12247429,12250261,12253580,12257946,12263084,12269457,12276385,12283483,12290068,12297286,12304887,12308844,12303531,12291594,12278218,12265115,12253513,12247914,12248768,12251395,12253981,12257521,12262154,12268613,12275308,12280923,12287398,12293626,12300409,12305688,12302071,12290751,12275727,12259953,12245953,12235775,12233371,12234863,12237020,12239700,12242744,12247685,12252564,12257810,12262316,12267186,12272118,12277613,12277067,12267127,12251558,12235058,12219301,12207255,12202087,12203041,12203647,12205318,12207280,12210763,12215222,12219208,12222143,12224086,12225324,12226630,12225060,12213346,12196105,12177815,12160915,12148561,12143910,12145010,12146938,12150907,12154344,12160317,12165495,12171673,12176901,12182481,12189108,12194928,12195373,12185534,12169087,12152793,12137664,12126065,12122353,12123674,12125015,12127274,12130329,12134474,12139219,12144825,12149577,12154924,12160045,12165896,12168864,12160272,12143484,12124093,12105392,12089661,12079234,12077436,12079065,12080849,12082426,12085992,12091050,12096571,12101921,12107124,12113019,12119161,12124365,12121822,12108967,12091573,12073288,12057523,12045058,12040972,12043233,12045699,12048318,12052378,12057148,12063784,12069902,12076003,12081633,12088040,12094420,12097877,12089932,12074380,12057036,12040264,12026299,12019472,12020337,12023133,12026683,12030129,12035239,12040931,12047235,12053710,12060040,12066412,12073103,12078450,12073571,12060135,12044829,12030258,12019039,12013793,12015601,12019151,12022084,12026385,12032022,12038550,12045810,12052227,12058778,12065978,12073204,12078511,12073707,12060177,12044615,12030267,12018390,12010780,12012359,12016445,12019935,12024671,12030394,12037527,12045238,12052387,12059673,12067078,12074278,12081060,12082093,12071635,12056414,12041066,12026460,12015593,12012366,12015728,12019995,12024346,12029582,12035393,12042874,12050025,12056799,12063761,12071473,12078782,12084558,12079892,12066865,12052062,12037365,12025018,12018032,12019960,12024174,12028321,12032731,12038865,12045223,12053011,12060485,12067523,12075269,12083176,12090692,12092809,12084388,12071087,12057360,12044301,12034533,12032059,12035215,12038472,12042406,12047183,12053206,12059904,12066394,12073281,12080081,12087272,12094472,12096137,12087988,12075600,12062787,12051893,12044410,12044889,12049554,12053437,12058291,12063921,12069834,12077239,12084183,12091162,12097884,12104956,12111064,12110581,12100776,12086189,12072308,12059066,12049223,12046493,12049102,12052797,12057232,12061430,12067300,12074740,12081854,12088467,12095486,12102336,12109324,12110707,12101861,12087647,12072520,12058128,12047635,12042260,12045111,12048600,12052251,12057139,12062745,12069092,12075823,12083184,12089814,12097296,12104761,12110759,12106756,12095240,12080115,12065218,12052319,12043841,12043292,12046808,12050118,12054129,12058572,12064801,12071096,12077486,12083918,12090198,12097245,12103209,12103574,12093637,12079790,12066532,12054562,12046587,12046757,12050092,12053248,12057036,12061865,12067565,12075106,12081369,12088151,12095325,12102561,12108985,12110263,12101425,12088167,12073750,12061106,12052396,12051134,12054980,12059246,12062752,12067778,12074407,12080993,12087724,12094822,12101596,12108831,12116174,12122533,12121533,12109991,12094506,12078910,12064213,12053018,12049291,12051918,12055646,12059171,12064213,12070508,12077434,12085206,12091675,12097840,12104138,12111038,12116652,12113019,12100001,12083903,12067651,12054878,12045229,12042986,12045009,12046176,12048224,12051133,12054588,12057567,12061235,12066123,12072726,12079738,12086162,12085447,12074134,12058342,12042720,12030035,12021590,12020360,12021905,12023109,12024167,12027586,12033072,12038908,12045852,12052525,12060048,12067777,12075046,12076319,12065594,12048308,12028712,12009177,11992507,11982449,11980939,11982243,11985886,11995620,12010133,12027544,12044949,12062541,12079637,12092868,12102491,12108745,12102279,12086640,12066977,12046160,12026897,12010840,12004101,12001661,12000210,12001080,12004613,12010602,12017913,12025156,12031991,12040137,12047976,12054025,12056091,12045955,12029566,12011846,11996107,11984717,11980666,11983054,11986670,11989384,11992311,11995723,12000577,12006276,12013553,12021095,12029292,12037576,12044385,12042629,12030983,12016829,12002967,11991883,11986038,11988420,11991825,11994964,12002513,12008484,12013955,12018288,12022553,12026708,12031604,12036529,12040358,12035283,12022076,12008359,11995672,11986696,11983932,11986714,11990262,11994434,11999228,12005517,12012231,12019320,12025659,12032382,12039522,12047201,12049332,12040725,12026256,12011676,11998513,11987926,11984232,11987320,11991365,11995203,11999861,12005422,12012444,12019313,12026563,12033815,12041518,12049027,12050016,12041203,12027937,12019840,12014150,12008059,12006762,12011010,12014431,12017606,12021572,12025983,12031137,12036878,12042883,12049206,12055639,12061856,12059673,12048719,12033917,12020199,12008844,12001277,12002523,12007078,12011123,12016353,12022069,12029012,12036477,12043574,12050698,12058283,12066250,12073382,12070917,12059981,12046997,12034489,12023859,12018714,12021521,12025608,12029909,12034609,12040298,12047166,12053692,12060714,12067677,12074935,12082443,12086035,12079175,12067530,12055835,12045220,12038755,12039120,12044410,12048710,12053222,12059315,12066506,12074391,12082469,12090223,12098260,12105905,12113225,12109623,12097783,12083800,12070081,12058870,12051696,12052702,12057583,12061832,12067897,12075984,12086137,12097296,12109538,12122771,12139321,12156931,12174008,12177984,12176961,12176551,12175459,12176388,12182890,12198792,12219268,12242447,12265233,12287892,12312805,12335342,12353037,12368675,12383920,12399005,12400854,12393245,12382299,12370696,12360903,12358164,12364698,12374758,12384433,12395831,12408789,12424068,12441276,12458331,12476330,12496720,12515233,12521529,12518211,12509680,12500185,12490150,12483488,12485401,12491448,12498155,12505551,12514772,12524047,12533626,12543420,12553146,12558291,12561421,12553513,12535001,12510310,12483873,12457340,12436883,12426678,12417653,12407312,12395718,12383289,12371029,12356356,12341589,12327931,12316079,12311225,12315686,12317606,12315594,12309657,12301662,12295826,12295767,12302258,12308419,12314723,12322862,12331964,12342612,12353055,12363105,12373802,12385021,12395752,12397178,12388910,12375637,12361979,12349641,12344345,12346758,12352260,12357893,12364238,12372395,12381669,12389866,12396855,12403712,12412193,12418514,12419223,12407399,12390966,12374895,12361987,12352875,12352260,12354873,12358617,12361979,12367914,12387888,12408901,12418797,12415546,12409796,12407202,12398807,12380935,12359146,12338211,12320618,12308998,12305176,12303828,12302942,12303395,12305817,12308974,12313333,12317546,12321591,12326291,12331095,12326376,12311541,12292064,12271547,12253000,12239973,12235280,12235928,12236662,12238734,12242378,12247403,12252538,12257931,12263911,12270326,12276291,12274047,12260574,12240895,12221135,12203594,12190012,12185611,12187097,12188784,12190373,12194074,12198937,12204313,12210097,12215395,12221288,12227354,12230930,12222474,12205028,12186389,12168002,12152827,12145258,12146624,12150180,12153789,12158535,12164863,12171535,12179333,12185979,12193189,12200592,12207255,12207649,12196216,12179742,12162339,12148074,12138595,12137896,12141105,12144449,12148704,12154481,12161366,12167431,12173044,12178011,12183487,12189270,12192497,12183828,12168728,12152194,12137434,12126796,12124195,12124315,12123580,12123340,12124876,12127173,12130047,12133375,12137343,12142069,12147963,12149704,12140062,12125261,12108796,12095377,12084073,12079908,12081854,12084303,12086752,12090086,12094567,12100180,12106202,12112942,12119349,12125969,12129560,12121822,12108240,12092817,12078895,12067941,12062974,12065926,12070124,12074866,12080909,12088330,12096834,12106885,12119468,12127335,12140532,12151717,12151418,12141274,12129356,12118410,12109776,12104198,12105204,12109308,12111278,12112695,12113455,12115963,12121559,12127941,12135107,12143416,12152314,12157527,12151537,12140192,12127044,12114563,12105733,12103865,12106662,12109068,12111364,12115749,12120892,12126446,12132333,12139459,12146615,12153558,12156597,12148757,12137230,12123674,12111568,12102772,12101066,12104002,12106357,12109034,12113684,12120764,12127036,12134211,12142315,12150880,12160215,12166177,12196259,12220087,12226843,12243896,12288702,12369715,12476989,12587262,12687326,12765310,12799272,12792321,12759328,12734615,12725494,12721434,12713517,12679510,12631882,12580217,12530727,12491140,12465437,12449140,12437327,12429009,12423557,12423130,12428233,12436302,12445942,12459072,12472023,12475930,12467477,12454730,12440882,12429393,12421971,12421911,12427804,12431961,12433675,12434171,12435304,12436047,12437760,12436608,12434962,12429196,12411400,12381958,12345735,12306166,12269175,12241151,12218422,12197241,12177898,12161118,12146820,12136744,12123667,12112114,12106568,12104095,12096067,12081684,12067966,12057258,12049589,12046433,12054826,12070856,12082894,12094548,12107728,12120424,12128299,12131626,12130833,12125490,12108703,12083450,12054819,12025676,11998700,11977321,11964166,11958048,11965130,11961376,11962040,11977808,12000927,12024533,12044026,12054537,12047303,12027989,12005184,11978917,11948612,11924291,11908637,11894389,11883826,11881822,11881883,11882512,11883580,11887410,11894448,11900378,11897374,11887879,11879135,11873248,11868907,11868173,11871431,11874894,11879929,11885355,11891250,11899739,11909616,11920392,11930996,11941540,11945305,11936950,11922644,11908611,11897485,11891575,11892829,11899268,11906589,11910274,11912927,11915761,11917799,11919445,11924701,11934597,11946379,11953596,11947018,11937054,11927977,11919369,11914736,11920494,11930594,11939767,11946650,11953119,11959090,11965455,11971920,11979583,11986150,11991927,11991995,11982200,11970155,11959456,11952708,11949406,11953416,11961358,11968303,11975171,11984751,11995458,12005559,12015660,12025011,12034360,12042270,12042584,12028678,12007539,11986927,11970079,11957826,11953782,11959500,11968072,11975641,11982396,11989076,11994445,11999544,12002241,12004647,12008578,12012178,12008119,11997541,11986654,11976458,11966683,11960062,11960199,11962843,11966460,11972032,11979488,11988872,11999160,12010216,12020951,12031409,12040333,12046578,12042551,12034846,12026248,12020326,12016907,12018954,12024977,12030726,12035044,12041289,12049914,12058735,12068965,12077768,12084841,12090658,12096196,12094412,12084226,12072708,12062590,12054214,12049614,12049693,12050683,12051433,12053104,12057932,12064623,12070705,12076157,12083918,12093038,12101315,12103046,12094805,12082186,12069202,12058257,12048567,12047644,12052994,12058181,12063367,12069594,12074935,12081222,12087842,12095462,12101749,12108123,12112200,12107576,12096434,12084739,12076233,12069287,12066405,12070694,12076914,12080977,12085267,12092135,12102339","-345,-341,-350,-337,-279,-257,-235,-199,-142,-76,-19,15,30,27,-3,-31,-26,-12,-20,-19,5,-8,-76,-165,-215,-302,-310,-355,-400,-455,-488,-469,-482,-564,-506,-431,-305,-265,-227,-227,-138,-102,-118,-153,-147,-145,-150,-153,-123,-117,-119,-100,-98,-98,-94,-97,-63,-56,-56,-37,-33,-25,0,-37,-52,-47,-87,-106,-91,-99,-102,-107,-111,-98,-91,-101,-113,-121,-150,-169,-167,-169,-167,-166,-166,-160,-160,-168,-168,-168,-168,-168,-168,-165,-169,-171,-171,-171,-170,-170,-172,-174,-174,-175,-179,-175,-174,-176,-177,-176,-175,-175,-176,-176,-175,-178,-180,-180,-179,-180,-183,-180,-182,-182,-182,-182,-183,-182,-182,-180,-178,-183,-182,-186,-186,-184,-185,-183,-184,-184,-185,-185,-184,-184,-184,-184,-185,-185,-183,-185,-185,-185,-185,-183,-186,-183,-186,-187,-186,-183,-183,-184,-186,-186,-186,-186,-185,-185,-182,-182,-181,-181,-183,-183,-182,-182,-182,-184,-183,-185,-186,-185,-185,-187,-184,-184,-187,-185,-183,-184,-183,-184,-186,-186,-185,-184,-186,-187,-185,-185,-185,-185,-184,-183,-183,-183,-186,-185,-185,-182,-182,-183,-184,-183,-183,-184,-182,-185,-185,-183,-182,-182,-182,-183,-182,-182,-182,-183,-184,-182,-180,-180,-181,-180,-182,-182,-181,-181,-181,-179,-181,-182,-179,-183,-180,-178,-178,-180,-180,-179,-179,-176,-177,-180,-178,-179,-180,-179,-180,-180,-180,-181,-180,-178,-179,-180,-181,-179,-178,-177,-177,-180,-181,-180,-180,-180,-178,-182,-181,-182,-182,-182,-180,-182,-183,-180,-179,-180,-179,-182,-182,-180,-181,-180,-181,-181,-180,-179,-182,-182,-181,-179,-178,-179,-181,-181,-182,-181,-182,-179,-178,-182,-181,-179,-180,-180,-180,-180,-180,-181,-179,-181,-182,-179,-180,-182,-182,-181,-182,-179,-180,-178,-178,-180,-182,-182,-182,-181,-181,-182,-181,-180,-180,-180,-182,-182,-179,-179,-181,-183,-184,-184,-180,-181,-182,-185,-185,-184,-182,-182,-182,-181,-180,-179,-177,-177,-176,-177,-179,-179,-179,-181,-183,-181,-179,-177,-180,-181,-181,-182,-180,-180,-180,-180,-179,-179,-180,-179,-179,-181,-182,-180,-180,-180,-179,-181,-182,-180,-181,-180,-182,-181,-180,-182,-180,-181,-181,-180,-178,-178,-179,-181,-182,-182,-181,-182,-179,-180,-183,-182,-183,-182,-180,-181,-181,-181,-183,-181,-183,-181,-181,-184,-181,-182,-181,-180,-180,-182,-180,-181,-182,-182,-180,-179,-181,-179,-182,-180,-179,-183,-180,-181,-179,-183,-182,-183,-182,-183,-182,-181,-183,-183,-182,-180,-182,-180,-181,-181,-180,-181,-182,-182,-182,-182,-181,-180,-182,-182,-181,-180,-180,-182,-180,-179,-180,-179,-180,-180,-180,-182,-182,-183,-182,-182,-181,-181,-181,-182,-181,-178,-180,-179,-180,-181,-181,-180,-181,-181,-181,-181,-181,-179,-183,-182,-183,-183,-181,-180,-180,-182,-180,-182,-182,-181,-180,-181,-181,-182,-182,-180,-183,-182,-182,-181,-184,-182,-184,-183,-184,-184,-183,-183,-185,-183,-185,-180,-180,-183,-182,-180,-182,-183,-183,-183,-183,-183,-183,-183,-183,-183,-183,-181,-181,-182,-181,-181,-181,-181,-182,-182,-180,-179,-182,-184,-184,-183,-183,-183,-185,-184,-184,-184,-182,-182,-181,-180,-179,-183,-181,-180,-181,-181,-181,-183,-184,-182,-180,-182,-183,-185,-184,-183,-182,-182,-181,-180,-179,-179,-180,-181,-180,-182,-185,-185,-185,-185,-183,-183,-183,-182,-183,-182,-183,-183,-183,-184,-183,-184,-184,-182,-184,-185,-184,-182,-182,-180,-183,-182,-181,-183,-185,-182,-183,-183,-184,-183,-182,-183,-184,-184,-186,-183,-183,-182,-184,-183,-182,-182,-182,-181,-181,-183,-182,-182,-182,-181,-181,-181,-182,-181,-181,-181,-181,-182,-182,-182,-182,-182,-180,-180,-182,-181,-182,-181,-182,-183,-182,-183,-182,-181,-182,-185,-184,-182,-183,-182,-183,-183,-181,-181,-184,-183,-183,-181,-183,-183,-184,-182,-183,-182,-183,-183,-183,-182,-181,-183,-183,-185,-184,-182,-182,-184,-184,-184,-182,-181,-185,-184,-184,-184,-182,-180,-181,-180,-181,-180,-180,-180,-182,-183,-179,-181,-182,-179,-179,-183,-181,-182,-182,-182,-183,-181,-180,-182,-181,-186,-184,-185,-183,-182,-183,-185,-184,-184,-184,-184,-184,-182,-182,-185,-184,-185,-185,-185,-185,-185,-183,-183,-184,-184,-182,-182,-180,-181,-181,-184,-184,-183,-184,-182,-185,-184,-184,-186,-187,-184,-186,-186,-185,-182,-181,-182,-184,-185,-181,-181,-180,-182,-182,-183,-185,-184,-184,-183,-184,-182,-180,-181,-182,-182,-183,-181,-180,-181,-181,-182,-184,-182,-181,-182,-181,-182,-182,-180,-180,-180,-181,-181,-179,-182,-180,-179,-179,-180,-181,-182,-181,-182,-183,-181,-182,-183,-183,-180,-180,-184,-183,-183,-182,-183,-182,-183,-184,-183,-180,-182,-182,-182,-184,-185,-182,-182,-186,-184,-184,-182,-182,-185,-183,-182,-182,-182,-181,-183,-184,-184,-183,-183,-184,-182,-185,-184,-184,-182,-184,-183,-183,-183,-183,-182,-184,-186,-187,-188,-188,-189,-190,-189,-191,-193,-198,-196,-192,-193,-191,-190,-192,-188,-184,-184,-184,-181,-179,-183,-185,-186,-183,-179,-175,-176,-180,-175,-172,-172,-169,-170,-170,-172,-170,-175,-178,-177,-178,-177,-177,-175,-177,-181,-182,-180,-179,-178,-178,-175,-176,-174,-165,-174,-181,-177,-176,-180,-178,-172,-174,-176,-177,-172,-176,-179,-179,-179,-171,-170,-175,-173,-162,-165,-179,-194,-195,-195,-192,-190,-191,-191,-194,-192,-193,-193,-196,-193,-196,-196,-198,-199,-195,-195,-199,-200,-199,-199,-196,-196,-197,-196,-196,-197,-197,-198,-195,-197,-198,-196,-196,-195,-195,-197,-196,-200,-200,-200,-200,-201,-201,-201,-201,-201,-201,-201,-198,-198,-198,-200,-199,-200,-199,-199,-197,-198,-198,-198,-198,-197,-197,-198,-198,-195,-197,-197,-200,-199,-199,-199,-199,-200,-199,-197,-200,-199,-199,-198,-198,-198,-199,-198,-197,-195,-197,-198,-198,-199,-201,-201,-200,-199,-200,-198,-199,-199,-199,-197,-199,-198,-195,-196,-195,-194,-198,-199,-199,-199,-199,-200,-199,-197,-197,-198,-198,-198,-198,-200,-196,-197,-198,-200,-198,-200,-200,-201,-202,-200,-198,-199,-202,-203,-200,-200,-197,-199,-197,-198,-199,-200,-198,-197,-197,-199,-198,-197,-198,-198,-199,-197,-198,-196,-195,-196,-197,-197,-198,-198,-198,-198,-196,-197,-196,-198,-196,-197,-197,-198,-198,-197,-198,-197,-197,-197,-195,-196,-197,-198,-198,-196,-210,-170,-194,-204,-199,-197,-201,-208,-207,-210,-210,-210,-213,-215,-214,-212,-213,-212,-212,-217,-213,-213,-213,-213,-212,-212,-210,-210,-211,-211,-212,-215,-214,-213,-212,-213,-214,-209,-212,-214,-215,-214,-214,-214,-214,-214,-213,-215,-211,-213,-214,-211,-209,-211,-181,-242,-227,-232,-216,-191,-158,-162,-128,-128,-118,-127,-160,-180,-149,-134,-185,-186,-180,-186,-192,-184,-184,-184,-191,-191,-191,-191,-192,-192,-197,-197,-196,-192,-188,-195,-200,-194,-193,-198,-201,-203,-200,-196,-196,-197,-199,-197,-199,-202,-206,-209,-200,-188,-188,-188,-182,-166,-153,-141,-142,-162,-185,-179,-162,-158,-163,-160,-152,-168,-186,-156,-135,-128,-142,-157,-152,-151,-156,-153,-147,-147,-146,-151,-152,-151,-154,-155,-151,-151,-157,-163,-158,-161,-161,-164,-161,-163,-163,-162,-160,-164,-167,-166,-169,-168,-168,-170,-169,-167,-171,-174,-179,-185,-188,-189,-190,-193,-190,-183,-178,-187,-182,-182,-180,-183,-180,-183,-180,-178,-194,-188,-182,-176,-175,-173,-174,-176,-178,-178,-178,-178,-175,-171,-163,-163,-171,-182,-187,-183,-180,-177,-177,-188,-195,-195,-200,-200,-199,-195,-195,-197,-200,-200,-204,-204,-204,-205,-210,-209,-213,-212,-209,-212,-211,-210,-213,-213,-212,-214,-211,-212,-209,-202,-193,-188,-187,-184,-188,-194,-194,-194,-188,-181,-176,-171,-168,-164,-162,-161,-160,-159,-159,-155,-150,-145,-140,-138,-136,-133,-133,-134,-135,-135,-138,-140,-140,-141,-142,-142,-140,-142,-143,-146,-153,-153,-153,-151,-154,-155,-158,-160,-158,-157,-158,-159,-158,-158,-152,-151,-147,-147,-140,-144,-150,-150,-154,-159,-159,-156,-155,-155,-146,-138,-137,-139,-143,-139,-157,-173,-166,-160,-148,-149,-145,-148,-150,-149,-148,-143,-144,-149,-151,-157,-151,-150,-148,-145,-147,-149,-157,-163","-195,-203,-210,-245,-339,-378,-405,-411,-394,-392,-411,-437,-474,-493,-508,-517,-514,-507,-484,-448,-414,-393,-377,-373,-349,-304,-257,-162,-106,-99,-111,-95,-49,8,49,48,84,236,338,338,379,357,300,264,272,281,283,285,293,287,282,292,289,298,309,314,311,310,318,317,318,324,323,322,322,317,279,270,278,278,274,267,270,270,269,269,271,263,253,242,239,241,243,241,241,242,242,241,241,240,240,243,243,238,243,246,245,244,242,243,241,237,236,239,242,245,247,244,245,243,243,244,243,240,234,229,227,230,227,228,230,227,231,235,234,232,234,236,235,233,223,220,223,226,225,227,224,223,223,223,226,226,225,225,226,226,226,226,229,228,225,224,221,223,225,225,225,222,223,223,225,223,225,224,221,223,225,225,225,225,225,225,227,227,226,226,228,229,232,230,227,227,227,226,228,226,229,232,231,231,231,229,230,231,229,231,226,227,228,226,226,230,231,229,225,226,228,229,227,229,229,231,231,229,228,225,225,224,226,224,224,226,228,226,227,226,226,229,227,228,229,227,228,225,228,228,226,228,228,230,229,228,227,229,226,228,226,230,231,230,231,227,229,229,230,228,228,229,230,229,230,231,232,232,232,232,233,232,230,233,235,233,232,229,230,234,234,234,235,235,232,229,232,232,232,232,231,232,234,235,236,230,231,230,231,231,233,233,230,230,229,232,231,231,231,229,233,231,232,230,231,232,231,229,225,225,226,229,230,233,230,230,228,227,230,228,228,232,231,231,231,229,231,229,227,229,229,226,225,223,225,225,228,227,224,228,227,228,228,230,229,230,228,231,231,231,232,232,232,232,228,229,230,229,232,230,231,228,230,231,233,231,228,230,226,226,228,230,227,227,231,231,230,229,232,231,229,228,231,232,229,231,231,231,230,227,228,231,230,229,229,228,227,227,227,227,227,229,227,230,227,231,232,230,231,230,228,228,229,228,229,227,227,229,227,227,227,229,229,230,230,229,230,233,229,227,228,227,227,229,227,226,226,229,228,231,229,230,231,234,233,232,233,232,233,230,233,232,232,232,234,233,234,229,231,231,232,229,230,227,228,231,231,229,229,230,232,229,231,229,229,233,231,230,230,230,230,229,232,231,230,230,230,229,230,231,228,227,228,231,230,231,230,227,228,227,228,227,226,226,226,227,226,227,226,228,228,228,228,229,230,230,232,229,227,228,228,228,228,230,232,231,230,230,230,233,232,234,234,232,232,234,233,229,231,232,232,228,230,230,229,231,231,231,231,231,231,229,229,231,231,229,225,225,229,230,230,228,228,230,232,231,226,230,227,228,230,229,228,225,229,227,229,226,230,231,230,230,228,228,230,231,231,230,232,231,229,229,232,229,230,224,229,230,228,229,230,231,229,229,231,233,231,230,228,232,229,230,230,231,233,231,230,230,232,232,230,231,234,235,234,228,232,233,232,232,232,229,229,228,233,232,232,231,231,232,230,229,231,230,228,229,229,231,232,232,233,230,229,228,228,228,229,228,231,233,231,231,231,229,230,227,227,230,230,231,229,231,231,233,234,233,232,234,234,233,233,232,231,232,232,232,231,229,230,232,230,232,231,233,232,230,230,229,227,229,229,231,231,230,230,230,230,230,231,232,233,231,226,224,233,232,234,232,229,232,234,233,233,231,230,229,231,231,229,230,229,227,228,228,232,229,230,227,229,231,231,232,233,232,234,233,233,232,232,231,231,231,231,232,232,233,232,232,230,230,230,234,233,233,232,233,233,233,232,232,231,231,231,231,231,231,233,232,234,232,231,233,231,230,230,232,229,227,231,233,232,229,229,225,227,226,228,228,231,231,231,233,232,231,231,229,229,232,232,233,234,232,230,231,231,227,232,230,232,233,231,229,227,229,229,227,230,229,232,232,228,229,232,231,232,232,230,231,231,229,230,228,226,231,226,228,231,233,228,229,230,231,232,230,231,231,231,232,230,231,231,231,231,232,233,233,229,232,232,232,230,233,230,231,231,231,231,231,232,231,231,229,230,230,229,229,231,229,230,229,229,230,230,228,229,229,228,226,226,227,227,226,224,221,219,223,227,228,232,231,229,227,227,225,223,222,220,222,221,221,223,223,222,227,228,234,236,232,232,231,231,233,232,232,230,235,235,238,239,237,236,234,232,232,234,238,234,234,234,235,237,241,234,238,234,224,224,230,226,227,229,233,232,227,227,228,233,239,236,237,243,245,235,209,211,215,215,214,211,209,208,209,210,210,207,209,208,205,204,203,204,204,204,200,199,205,203,203,206,205,201,202,205,204,203,203,208,207,207,206,204,201,201,200,200,202,202,203,203,204,204,206,206,207,206,206,204,203,207,207,206,206,206,209,208,207,203,201,200,203,203,203,203,207,209,207,202,202,204,203,202,202,204,204,204,205,206,205,203,205,205,205,204,204,204,208,206,204,202,204,206,205,209,207,207,206,206,206,206,206,206,206,205,207,206,205,206,206,205,208,209,206,207,204,205,207,207,206,207,211,211,213,209,210,210,212,213,210,209,209,208,209,208,209,209,210,209,208,207,210,208,210,213,212,211,212,214,213,215,216,210,212,214,212,213,213,212,212,213,211,214,211,211,208,210,213,213,215,211,211,212,207,210,213,212,211,213,215,217,205,200,207,214,208,211,210,206,209,207,207,207,212,214,211,209,207,210,210,208,208,208,208,207,207,207,207,207,207,208,209,212,209,206,208,210,211,209,205,210,207,207,207,207,206,210,212,210,210,210,211,209,207,224,222,209,210,223,228,220,209,202,203,210,218,224,236,232,220,215,218,224,224,222,218,218,218,216,216,213,213,216,216,215,215,216,222,223,220,219,222,222,220,215,214,224,225,223,220,223,226,225,225,221,225,228,233,241,237,240,236,226,221,217,212,215,229,244,250,240,230,235,231,221,229,249,250,247,236,226,227,234,234,229,228,227,224,224,225,226,227,227,225,226,225,226,230,230,230,226,224,226,233,236,238,240,236,237,240,242,243,244,245,247,248,255,259,258,261,263,262,263,264,266,263,256,253,251,258,257,253,254,255,238,241,243,242,242,243,245,243,244,241,244,242,243,247,253,257,258,249,240,239,244,250,253,254,263,263,268,268,270,268,268,272,272,272,272,272,276,275,274,273,272,274,277,280,278,274,273,277,276,275,280,279,270,259,245,253,260,260,251,247,247,242,238,241,240,233,233,230,227,224,225,220,219,218,215,209,205,202,204,203,203,205,206,206,206,210,210,208,207,207,210,212,214,216,218,214,213,218,218,218,217,219,220,221,222,216,215,213,215,210,210,210,210,211,211,214,215,215,212,210,206,208,203,203,204,208,215,217,224,225,218,216,220,218,214,213,214,215,215,211,206,211,213,215,208,210,207,206,201,202,211,212","407,400,373,335,201,163,131,101,61,42,-2,-33,-51,-75,-79,-70,-90,-97,-80,-122,-152,-138,-80,-7,65,181,163,244,275,266,271,260,253,307,364,334,323,351,366,366,418,443,422,393,406,414,388,375,383,387,391,393,379,388,383,371,380,378,385,380,387,389,398,376,386,383,371,399,404,407,406,406,403,408,420,418,414,410,410,392,407,399,402,402,402,404,404,400,400,398,398,396,396,397,398,399,408,404,404,401,396,394,395,397,400,397,403,396,396,396,385,399,396,396,385,388,394,394,401,400,399,398,398,410,406,402,399,390,393,394,389,390,386,399,403,399,400,389,400,400,406,406,402,402,395,395,401,401,399,399,404,399,398,393,392,407,408,395,402,400,387,392,395,392,400,416,411,411,405,405,405,405,401,401,404,404,410,401,405,402,410,396,392,394,397,401,405,406,401,391,400,406,397,403,401,394,388,388,398,393,393,395,396,389,392,400,404,406,402,399,399,394,393,394,393,400,409,404,407,395,389,395,393,394,401,402,405,407,408,402,402,406,397,403,397,404,405,401,401,398,397,402,400,399,404,408,404,405,401,399,391,395,393,405,401,399,404,411,410,403,400,400,400,398,390,387,387,393,392,410,403,397,402,405,400,399,383,391,395,397,394,397,395,395,393,404,400,404,401,403,402,401,404,396,401,408,408,400,404,404,407,395,404,393,405,407,406,397,405,401,396,393,403,395,393,400,399,403,400,404,406,399,395,402,401,400,400,396,397,396,394,405,400,397,393,396,408,410,401,395,396,393,401,404,406,401,401,399,394,400,400,391,393,400,400,404,393,391,402,391,396,401,400,391,394,392,395,408,408,408,409,409,408,407,395,400,403,413,410,388,397,397,397,398,410,402,404,397,399,399,410,403,403,397,398,397,393,394,399,393,399,407,401,400,400,404,401,400,409,407,407,399,401,404,402,412,408,407,408,403,404,406,403,396,395,395,395,398,398,402,407,410,404,403,406,401,410,398,390,389,390,390,387,393,403,399,412,406,407,403,397,399,402,397,397,403,406,401,408,402,384,396,390,392,400,397,397,394,396,396,396,412,405,415,416,414,405,407,404,406,406,398,408,408,401,407,407,401,399,399,393,396,397,405,405,401,405,406,402,401,392,400,394,406,407,393,394,388,392,409,409,401,405,400,398,403,398,398,398,397,386,380,389,394,388,398,397,397,407,411,405,397,397,391,395,386,393,392,395,402,398,398,394,392,399,393,393,396,402,399,400,405,405,398,398,401,401,403,403,395,395,389,388,388,401,403,397,397,403,400,404,399,394,407,406,402,396,399,391,394,391,395,389,398,396,396,403,400,395,389,395,403,397,394,395,392,398,394,406,401,398,394,401,396,398,398,395,396,397,398,394,405,394,395,402,401,400,395,393,401,392,398,402,402,404,393,386,397,399,399,387,388,391,387,389,399,397,398,399,393,396,393,393,405,394,393,397,397,398,403,401,392,400,400,397,399,397,398,397,396,396,398,389,390,398,390,395,395,397,398,412,410,411,403,393,392,392,405,400,395,397,392,398,397,399,391,391,391,400,399,391,400,400,394,395,402,396,394,388,393,392,395,396,385,388,393,401,394,400,398,394,402,397,401,404,408,402,395,396,401,397,410,411,397,398,394,392,392,392,395,392,395,398,403,410,409,396,410,413,405,411,405,402,407,400,399,393,397,395,389,393,392,400,394,402,400,396,393,388,390,398,397,398,403,402,395,395,391,387,381,395,390,390,390,399,399,410,410,393,393,401,401,395,389,391,393,395,397,403,406,398,390,395,400,401,399,395,404,402,400,394,388,392,403,407,407,401,409,400,398,397,393,397,396,399,399,403,404,400,403,405,388,403,402,398,397,390,390,382,390,389,395,391,394,400,400,387,393,394,395,401,403,406,409,400,394,394,395,392,395,389,398,404,400,400,398,399,402,395,400,403,396,395,398,404,406,414,402,392,399,391,391,391,395,393,400,398,403,407,397,408,408,408,403,397,395,397,398,408,408,402,400,404,402,399,391,394,402,399,400,406,409,403,402,402,407,402,396,398,398,389,398,399,403,401,401,403,411,403,389,403,406,402,405,415,402,410,409,402,410,400,396,393,404,402,400,399,403,396,406,409,400,398,396,396,390,382,388,390,398,402,399,404,401,392,394,377,392,387,398,402,405,402,405,402,401,399,399,399,396,396,406,411,402,398,405,407,403,399,399,391,385,384,396,402,404,406,401,402,396,402,404,407,417,414,405,412,412,404,401,411,404,411,409,403,403,401,400,408,403,406,401,408,403,403,401,400,400,395,405,405,401,401,405,405,406,406,405,405,418,408,400,409,404,408,403,408,412,419,414,413,409,402,400,404,407,402,399,398,394,401,400,395,395,402,400,400,405,398,397,399,402,401,409,408,412,410,408,404,397,401,398,398,402,409,412,415,403,401,400,398,397,398,398,408,403,401,398,401,397,398,395,406,401,409,404,398,397,398,403,401,402,404,420,405,409,404,411,397,390,386,393,395,397,402,395,397,401,400,398,387,389,405,403,406,401,403,409,409,402,410,403,401,399,399,402,402,405,410,400,415,405,407,408,403,401,399,398,394,402,408,404,404,416,404,397,390,393,403,400,394,396,402,401,387,394,396,394,401,400,391,396,397,393,388,392,402,398,397,395,397,395,402,396,400,400,410,410,402,402,403,403,397,397,392,395,393,392,394,397,394,384,394,391,396,393,389,384,396,397,397,393,399,394,401,405,390,386,402,399,381,391,398,403,406,408,412,432,415,412,415,412,426,417,396,402,399,405,400,401,401,401,398,398,399,399,404,404,404,404,400,399,404,411,397,402,404,396,399,395,385,390,389,394,384,390,393,406,397,394,409,399,398,407,410,402,388,381,399,416,417,400,413,411,409,420,414,428,404,405,413,397,399,407,412,414,423,421,420,416,417,414,418,413,419,427,430,419,405,402,401,415,415,412,408,399,404,404,406,401,399,407,399,407,407,406,401,404,397,392,384,386,383,386,376,386,384,386,384,382,385,380,376,386,392,388,380,371,377,397,394,394,401,391,392,391,385,388,390,390,398,398,386,392,395,397,394,388,398,389,399,381,376,376,382,382,377,365,365,356,364,364,372,372,375,366,365,362,357,360,369,356,355,354,357,361,357,360,364,358,377,389,376,376,388,381,385,385,385,387,384,401,398,403,406,409,415,411,410,416,421,423,432,435,426,418,430,436,436,432,427,427,420,428,428,427,428,428,440,426,430,431,423,420,416,425,425,417,408,411,410,420,422,415,415,418,424,411,414,414,421,419,427,435,439,438,435,433,426,421,410,409,409,413,415,426,436,439,442,435,426,424,415,416,422,425,411,419,420,420,423,422,422,420,419,406,418,415,416,424"
"12054059,12056227,12059484,12064407,12069884,12074911,12080634,12087842,12092799,12098346,12105758,12112942,12117175,12112593,12101579,12092552,12081418,12073477,12070652,12070942,12071617,12076625,12080676,12084064,12086863,12090582,12098276,12104836,12109845,12115827,12120390,12124111,12118019,12104420,12089464,12078715,12069169,12064016,12064373,12067078,12068118,12071190,12075456,12079467,12083723,12089055,12093987,12100084,12107747,12114886,12120458,12118188,12103559,12088686,12077076,12064955,12052678,12049991,12053837,12057472,12063265,12067727,12070389,12073989,12078801,12085624,12089721,12092288,12094822,12097893,12097228,12088201,12075303,12062710,12049998,12042151,12042389,12044105,12044045,12046380,12050680,12054965,12057849,12062360,12068024,12071591,12076914,12084226,12086042,12081394,12069962,12056482,12043841,12035743,12030828,12030342,12031409,12033030,12036665,12039274,12041954,12049599,12055134,12061619,12067606,12073732,12078808,12083697,12077469,12062956,12046697,12030207,12017290,12009321,12006736,12007846,12008519,12010567,12014798,12018211,12021693,12027783,12032357,12037236,12042909,12045392,12049700,12047507,12036134,12021547,12007026,11992763,11983787,11979538,11978848,11981108,11981962,11987020,11996728,12004459,12008826,12014662,12019440,12025888,12031283,12035170,12039914,12036314,12021385,12006224,11993948,11983044,11979078,11977944,11978362,11981793,11985469,11988334,11993018,11997463,12003411,12011225,12013852,12016753,12023654,12031152,12027869,12013050,11997582,11989325,11980486,11970061,11968791,11970470,11974123,11979855,11984008,11990621,11997301,12001491,12004443,12011353,12018108,12024321,12028346,12021795,12008861,11996934,11983190,11970530,11960848,11959806,11962203,11965027,11967409,11972237,11978190,11981952,11986833,11991200,11995339,12001566,12007692,12009255,12009696,12000040,11983720,11967595,11953288,11942940,11941609,11943016,11944929,11948801,11953296,11957664,11964670,11969488,11974240,11979445,11982193,11987678,11993727,11997624,11992729,11980520,11967801,11959960,11953954,11950056,11950729,11954884,11960694,11967759,11967409,11967220,11977236,11986791,11989589,11993829,11998145,12002172,12009406,12009082,11998445,11987985,11974522,11961061,11954584,11954584,11954584,11954584,11954584,11956068,11956564,11958466,11959185,11961112,11965308,11970863,11976203,11981628,11986143,11989973,11996193,12002429,12001423,11991074,11976110,11961426,11947061,11936890,11934265,11937787,11941781,11944474,11950064,11958279,11964755,11969865,11975366,11981007,11986561,11992182,11995971,11994144,11984342,11970967,11956820,11942633,11928959,11925390,11930373,11934750,11939100,11942428,11947675,11953135,11958910,11966793,11974498,11982883,11987781,11994359,12001073,12004135,11997762,11983737,11968090,11952086,11937700,11928121,11928718,11932830,11936449,11939017,11943664,11948273,11953126,11959072,11967612,11975222,11980785,11984855,11988053,11994051,11995031,11982994,11966784,11951259,11937813,11929324,11928606,11931106,11933241,11935057,11939160,11945269,11950446,11953109,11958723,11965820,11972628,11978132,11982859,11986134,11978242,11962390,11944304,11930288,11918242,11910657,11910052,11911622,11913618,11917525,11924538,11931166,11935432,11941190,11947497,11953143,11958508,11965727,11973942,11979530,11979285,11966871,11947042,11928573,11913284,11900293,11896214,11897349,11899686,11902085,11905753,11909105,11916406,11925630,11930809,11934750,11942546,11949381,11955199,11962707,11968697,11972892,11969047,11956215,11937598,11916553,11899440,11885661,11881924,11885242,11886326,11890055,11897988,11904891,11905787,11911800,11924376,11934280,11938316,11945508,11950055,11958944,11971518,11981467,11973874,11960541,11953792,11942761,11924854,11921168,11931764,11941013,11938026,11930434,11926422,11929119,11933676,11940508,11944518,11950788,11959320,11969149,11981093,11990861,11997891,11996670,11983003,11965437,11946873,11931483,11920521,11920068,11927396,11932353,11935545,11940850,11948187,11951105,11957955,11964822,11972467,11978190,11984256,11987728,11990341,11997779,12009834,12013424,12003016,11989068,11975597,11964115,11961784,11966427,11972704,11977978,11982363,11981323,11979146,11988054,12000474,12007299,12011933,12015167,12018629,12028414,12039497,12047242,12048948,12055364,12064110,12059751,12048582,12033211,12020148,12007581,11996952,11995365,11998734,12005645,12011598,12012983,12020157,12022665,12028927,12036827,12045690,12058249,12066907,12072821,12078561,12086990,12095505,12097143,12089141,12077656,12061328,12041903,12026419,12016173,12014858,12017256,12024133,12028670,12034164,12041083,12047098,12053548,12062473,12074884,12083578,12086504,12088714,12093542,12100410,12106586,12113727,12112721,12099233,12082845,12067027,12053914,12041834,12038472,12040641,12043217,12045871,12047678,12051040,12054179,12057540,12063129,12067155,12071455,12073886,12077750,12085130,12091220,12092662,12082939,12069169,12056722,12044640,12035154,12029755,12025771,12025052,12028807,12034318,12037739,12040742,12047592,12054946,12061942,12069380,12075592,12082929,12086701,12094293,12099146,12094165,12079618,12064016,12049137,12035316,12023550,12018647,12016608,12017818,12021753,12027024,12031280,12037304,12046210,12055185,12060500,12065474,12072991,12081027,12089397,12095291,12098720,12093935,12083210,12070892,12058565,12042618,12030394,12027254,12028652,12033159,12040401,12047994,12053326,12058162,12062608,12067478,12074287,12081651,12086939,12092116,12095949,12103141,12112200,12108763,12094951,12084133,12076078,12066412,12055689,12053470,12061679,12067376,12072614,12079653,12077759,12081034,12090658,12102500,12107866,12103814,12110683,12123538,12129689,12129928,12127959,12122882,12114784,12105118,12095658,12088790,12088551,12089106,12090001,12091315,12093031,12096059,12099308,12105597,12111765,12116192,12121261,12127214,12131899,12138033,12142826,12146753,12150914,12153048,12143553,12128930,12110552,12093483,12078314,12066943,12061029,12057804,12058802,12060799,12061242,12061250,12065321,12071488,12078118,12084148,12090172,12093780,12099856,12108412,12113173,12107396,12094822,12080582,12065713,12051261,12039677,12033942,12034533,12036468,12037688,12037859,12038891,12045009,12051663,12056414,12059751,12063034,12065373,12069680,12072496,12074493,12067034,12054700,12038806,12023331,12008519,11998700,11995756,11996226,11998675,12003282,12007497,12009858,12015251,12020146,12024216,12029217,12035505,12041860,12045442,12051237,12052917,12042269,12025105,12010712,11998752,11985717,11978762,11979189,11981646,11981187,11983335,11988488,11994759,12000389,12005670,12011420,12015789,12021471,12026197,12033629,12032025,12020172,12005354,11990536,11973653,11961742,11959133,11961683,11962732,11963901,11966213,11970282,11974138,11978906,11984590,11990886,11995083,12000474,12002914,11995654,11982431,11969883,11957930,11952871,11952111,11956197,11959012,11959908,11963542,11969480,11976646,11984521,11990179,11997198,12003931,12006608,11998640,11984419,11965787,11951462,11937591,11929837,11926919,11928027,11929615,11934725,11940782,11946668,11952324,11956930,11962288,11968534,11974267,11968918,11956632,11939306,11922927,11908728,11899054,11898707,11902560,11907033,11914574,11923089,11931935,11938887,11944962,11954049,11961068,11968858,11965352,11951079,11931592,11911962,11894219,11884451,11880893,11882231,11885370,11889527,11898323,11905846,11914044,11924351,11934879,11945644,11953254,11950992,11937259,11925827,11911852,11897946,11890575,11889474,11893067,11893868,11895149,11902707,11918122,11932951,11942086,11949689,11956710,11967946,11970998,11960335,11944236,11929536,11920862,11913013,11908934,11908430,11914574,11922208,11928659,11935127,11939680,11946420,11954482,11961846,11969788,11970897,11958331,11942191,11929273,11912399,11901291,11904039,11913329,11918266,11922370,11923608,11925323,11932224,11940678,11948016,11954628,11961640,11964370,11956207,11939323,11921440,11906350,11894814,11889653,11893417,11901504,11910531,11919829,11926347,11933189,11939502,11946489,11955310,11962604,11971434,11970761,11959731,11942428,11924904,11912177,11907474,11910862,11916587,11925996,11932251,11938384,11949066,11954908,11958297,11969480,11984753,11995706,12000937,11993718,11978917,11968235,11957307,11947180,11944049,11946379,11952810,11962186,11970222,11974369,11977791,11983932,11991091,11999988,12006491,12012317,12007939,11995858,11982618,11970513,11960497,11958552,11961512,11963662,11967176,11975683,11981443,11989350,11995083,12006507,12016847,12017989,12029969,12033491,12022367,12007555,11996405,11978132,11967467,11969011,11973532,11979828,11988250,11991271,11992600,11995127,12000654,12010140,12017298,12022767,12019960,12010576,11995432,11976526,11961573,11954569,11958346,11962664,11963866,11965805,11974726,11980920,11987295,11993403,12000611,12012972,12026693,12022016,12005995,11993478,11984683,11974975,11962066,11956164,11962904,11974744,11981843,11981247,11988831,11999586,12009842,12023715,12022220,12022016,12035154,12033423,12022683,12009041,11987456,11980418,11984530,11983302,11980128,11981733,11987302,11997044,12007896,12013793,12019833,12024472,12027544,12030667,12025531,12013349,11994383,11971016,11954227,11951148,11954407,11959772,11957495,11970215,11975291,11982185,11991689,11992080,11996362,12014968,12018442,12013560,11997959,11979838,11967322,11953477,11940458,11941627,11945661,11951191,11954935,11960993,11967176,11975615,11980401,11986518,11996806,12007230,12013288,12007164,11994555,11979308,11962553,11950098,11947068,11951317,11956350,11958937,11964217,11973968,11982636,11988906,11993512,12000662,12008835,12015329,12015371,12007692,11996080,11981297,11969183,11962093,11964669,11968150,11971477,11974507,11982030,11989291,11990304,11995056,12003307,12012437,12020081,12017077,12004774,11992209,11980699,11966358,11958195,11958706,11962970,11967484,11965011,11969302,11976996,11984787,11992745,11994503,11997335,12002316,11999160,11985160,11967876,11952554,11941438,11935783,11937992,11943340,11948520,11955813,11959951,11960823,11963270,11966479,11975957,11990612,11990203,11989965,11983660,11967910,11950891,11925066,11911152,11915136,11925349,11932993,11938759,11948589,11958723,11967338,11974703,11985766,11996089,12008484,12006992,11994453,11976741,11961453,11945525,11935927,11931663,11937992,11944066,11951327,11958817,11966324,11971954,11978762,11988437,11995629,11996756,11992609,11986798,11982661,11974097,11960805,11949723,11945106,11947821,11954166,11961512,11970324,11978302,11983591,11989401,11995500,12004450,12014244,12019935,12011504,11995885,11977388,11965515,11954696,11953809,11957913,11962793,11970275,11975257,11979846,11988361,11993718,12000226,12006045,12010668,12009553,11998274,11983591,11970172,11957434,11944152,11941175,11946353,11955131,11960446,11972142,11980281,11976698,11986681,11994280,12002734,12014919,12008145,11991859,11979949,11965455,11949901,11937002,11932686,11938658,11946318,11947844,11944612,11948495,11960353,11970676,11978439,11981578,11984529,11989786,11986911,11974131,11957434,11941268,11926782,11917449,11917304,11923813,11929419,11933760,11937847,11946045,11955454,11961716,11967187,11974071,11978277,11973823,11961692,11949594,11939988,11930221,11926704,11930552,11934392,11936961,11941047,11945396,11952912,11960062,11965923,11972399,11977858,11981918,11972662,11956990,11945201,11935399,11923752,11918422,11920484,11925519,11931942,11934708,11941908,11950347,11961802,11967732,11973227,11977466,11979319,11968909,11951763,11934197,11919206,11906307,11905948,11917098,11913668,11926595,11945406,11961555,11978924,11993309,11994325,11992498,12002829,12008631,11998120,11978830,11954806,11938836,11929572,11926808,11923173,11923608,11930469,11942248,11951455,11956710,11958006,11967946,11978141,11985066,11990390,11984419,11972297,11961496,11948751,11936702,11938912,11941609,11944304,11948819,11952435,11957145,11962988,11966724,11973124,11983107,11990424,11990477,11981876,11970479,11959822,11948356,11937267,11933580,11933580,11933580,11933580,11933580,11933580,11933580,11933580,11933580,11939733,11946650,11948801,11950166,11955702,11963467,11960787,11952189,11948639,11953748,11960147,11958492,11941277,11914530,11903098,11900974,11897017,11896256,11899404,11907510,11920323,11932617,11945329,11959253,11972722,11986775,12000893,12009867,12007308,12000048,11993180,11984266,11971333,11962435,11960515,11967910,11976314,11981084,11984769,12001080,12010925,12018757,12026470,12034753,12043710,12049554,12035248,12028407,12017844,12002446,11991670,11990247,11997880,12011300,12018826,12021317,12024235,12026580,12027288,12028798,12031528,12034471,12038601,12032885,12012810,11994179,11980963,11971802,11964447,11963613,11968559,11972126,11978005,11985996,11990025,11993300,12000542,12007181,12020831,12031511,12032511,12023706,12008247,11994239,11977858,11967119,11968977,11974778,11974198,11976996,11981067,11984539,11989163,11991919,11995638,12001619,12007700,12007061,11998181,11981406,11964516,11954816,11951207,11951625,11955345,11959269,11963730,11969907,11973585,11976093,11981500,11986475,11993829,12002651,12003238,11996252,11983387,11965078,11954798,11947197,11949347,11955420,11966853,11981356,11996217,12008008,12020428,12025565,12027510,12025361,12019756,12014075,11997206,11985622,11974522,11971119,11977986,11984650,11987005,11989946,11991091,11993573,11995936,11998982,12002564,12009680,12013382,12008571,11997018,11982234,11972245,11967928,11967850,11972757,11976458,11981424,11985750,11991757,11997951,12005328,12016079,12024106,12031528,12030087,12017605,12004058,11994690,11988122,11985793","-380,-369,-374,-378,-368,-375,-375,-370,-369,-367,-367,-369,-370,-377,-373,-362,-377,-383,-381,-384,-375,-381,-383,-380,-381,-379,-378,-381,-373,-368,-368,-366,-370,-370,-370,-377,-372,-375,-387,-378,-378,-384,-371,-377,-369,-378,-380,-367,-366,-376,-376,-375,-371,-362,-361,-375,-375,-367,-367,-374,-374,-378,-378,-373,-373,-379,-381,-380,-381,-377,-370,-381,-379,-365,-371,-365,-366,-375,-366,-369,-375,-366,-371,-382,-369,-371,-377,-380,-383,-376,-383,-375,-372,-382,-382,-372,-359,-374,-369,-361,-374,-365,-361,-365,-367,-372,-366,-370,-372,-366,-369,-372,-367,-373,-371,-362,-370,-372,-366,-381,-373,-365,-372,-369,-362,-368,-369,-369,-380,-370,-365,-370,-360,-358,-376,-366,-368,-373,-370,-371,-370,-365,-371,-380,-364,-368,-378,-375,-376,-365,-376,-378,-368,-375,-370,-369,-383,-376,-367,-369,-369,-370,-366,-366,-357,-368,-396,-383,-372,-374,-374,-374,-361,-371,-375,-364,-365,-369,-367,-377,-363,-367,-367,-373,-373,-378,-372,-362,-373,-369,-365,-373,-379,-379,-379,-372,-372,-377,-377,-384,-384,-375,-375,-377,-374,-367,-377,-373,-370,-368,-368,-364,-368,-366,-365,-370,-361,-362,-371,-365,-365,-360,-356,-373,-366,-354,-362,-368,-379,-392,-359,-387,-387,-383,-369,-382,-376,-367,-377,-372,-365,-370,-364,-369,-370,-370,-371,-373,-367,-370,-375,-368,-378,-376,-376,-368,-368,-370,-370,-367,-367,-364,-364,-371,-371,-374,-378,-374,-367,-372,-371,-371,-372,-375,-375,-374,-372,-370,-380,-379,-380,-378,-373,-384,-388,-381,-380,-378,-374,-377,-378,-378,-380,-383,-373,-373,-382,-374,-375,-377,-367,-370,-373,-371,-379,-376,-369,-369,-374,-377,-376,-382,-375,-372,-371,-369,-377,-384,-378,-368,-372,-377,-371,-375,-376,-371,-380,-378,-370,-376,-376,-370,-374,-378,-371,-371,-373,-377,-373,-374,-381,-379,-381,-381,-376,-383,-379,-379,-382,-375,-368,-371,-371,-378,-368,-375,-382,-372,-370,-372,-371,-378,-385,-375,-376,-379,-370,-375,-378,-377,-369,-374,-373,-364,-376,-382,-367,-368,-384,-376,-374,-377,-370,-380,-384,-373,-373,-378,-372,-385,-385,-385,-365,-365,-370,-370,-390,-390,-388,-388,-377,-369,-377,-370,-390,-381,-385,-401,-383,-340,-324,-368,-356,-347,-351,-357,-362,-384,-397,-382,-380,-375,-371,-366,-367,-367,-369,-381,-376,-376,-383,-374,-363,-370,-369,-369,-368,-372,-376,-369,-364,-373,-371,-366,-376,-370,-366,-374,-383,-375,-374,-370,-358,-359,-367,-363,-370,-370,-378,-368,-357,-369,-381,-377,-374,-371,-373,-383,-393,-368,-366,-379,-370,-363,-364,-371,-364,-370,-370,-364,-372,-378,-384,-391,-391,-398,-366,-370,-376,-376,-380,-363,-364,-363,-365,-365,-363,-376,-381,-374,-375,-384,-379,-377,-386,-382,-378,-382,-366,-361,-378,-384,-372,-362,-372,-374,-363,-370,-382,-383,-378,-379,-387,-372,-372,-372,-371,-381,-381,-381,-389,-389,-387,-387,-378,-378,-369,-369,-377,-384,-369,-367,-364,-366,-379,-383,-378,-367,-380,-389,-377,-371,-378,-373,-375,-367,-367,-378,-362,-363,-375,-370,-381,-363,-371,-384,-392,-378,-375,-374,-375,-374,-369,-370,-371,-379,-377,-370,-366,-368,-381,-374,-366,-360,-364,-366,-378,-374,-365,-363,-365,-360,-363,-364,-364,-359,-357,-364,-364,-353,-366,-370,-365,-365,-376,-367,-354,-363,-381,-383,-357,-357,-381,-381,-353,-353,-367,-367,-397,-397,-361,-343,-334,-356,-382,-365,-367,-368,-373,-378,-370,-368,-372,-372,-368,-376,-371,-368,-379,-379,-384,-384,-383,-383,-378,-378,-379,-379,-382,-380,-389,-391,-387,-380,-384,-383,-381,-380,-383,-387,-384,-376,-372,-379,-385,-386,-386,-376,-381,-378,-387,-388,-384,-383,-379,-382,-384,-384,-390,-391,-389,-382,-376,-378,-383,-393,-390,-385,-388,-393,-390,-386,-380,-387,-386,-392,-394,-391,-379,-382,-378,-385,-388,-388,-386,-386,-384,-384,-385,-387,-386,-392,-392,-389,-382,-385,-383,-389,-389,-385,-389,-382,-382,-376,-384,-385,-388,-382,-383,-381,-382,-383,-386,-386,-385,-385,-380,-379,-376,-382,-382,-389,-382,-382,-378,-375,-381,-381,-378,-378,-382,-382,-389,-389,-396,-396,-398,-398,-394,-397,-389,-392,-386,-384,-393,-396,-389,-395,-384,-387,-385,-382,-398,-401,-392,-386,-386,-392,-393,-393,-392,-390,-390,-378,-382,-386,-384,-386,-389,-382,-382,-383,-374,-376,-373,-381,-380,-380,-382,-379,-382,-381,-389,-398,-383,-389,-394,-399,-394,-382,-377,-382,-378,-373,-378,-380,-402,-397,-386,-376,-374,-386,-395,-417,-419,-428,-413,-371,-362,-365,-373,-385,-372,-361,-367,-369,-364,-361,-371,-391,-396,-401,-386,-379,-394,-395,-389,-378,-373,-371,-376,-383,-388,-396,-391,-387,-371,-373,-366,-395,-432,-414,-399,-389,-378,-364,-368,-376,-382,-379,-380,-367,-355,-360,-369,-369,-373,-377,-377,-381,-382,-373,-375,-370,-370,-372,-365,-360,-362,-369,-372,-359,-366,-370,-374,-358,-357,-368,-362,-369,-382,-360,-351,-351,-369,-362,-362,-379,-380,-378,-376,-364,-376,-368,-368,-378,-378,-371,-371,-358,-358,-366,-366,-369,-383,-379,-374,-367,-362,-377,-384,-377,-375,-377,-370,-372,-372,-369,-354,-336,-355,-361,-361,-381,-381,-387,-387,-395,-395,-377,-377,-351,-347,-354,-347,-348,-345,-353,-371,-367,-362,-353,-376,-373,-366,-357,-361,-375,-355,-355,-341,-364,-373,-376,-380,-364,-364,-383,-374,-359,-368,-378,-397,-387,-344,-376,-410,-383,-376,-374,-357,-402,-400,-343,-355,-384,-369,-369,-402,-397,-335,-353,-392,-365,-386,-412,-394,-390,-369,-371,-378,-372,-374,-349,-359,-373,-354,-342,-345,-382,-391,-339,-372,-365,-373,-412,-400,-342,-377,-366,-366,-379,-355,-348,-371,-337,-361,-368,-354,-353,-345,-349,-376,-378,-363,-371,-374,-367,-363,-371,-379,-370,-361,-363,-377,-392,-377,-368,-381,-378,-373,-369,-375,-379,-379,-364,-373,-383,-382,-380,-380,-390,-398,-394,-371,-368,-400,-380,-369,-383,-383,-382,-382,-370,-370,-353,-353,-353,-353,-385,-395,-386,-389,-368,-379,-385,-377,-385,-379,-368,-375,-367,-366,-376,-388,-392,-337,-337,-337,-380,-380,-428,-428,-387,-387,-368,-368,-375,-354,-402,-393,-373,-359,-370,-362,-348,-349,-369,-367,-369,-380,-382,-394,-393,-387,-386,-373,-376,-375,-359,-360,-357,-374,-392,-377,-357,-342,-354,-363,-388,-393,-379,-388,-373,-349,-360,-368,-375,-389,-373,-375,-372,-365,-384,-393,-392,-389,-374,-384,-383,-369,-373,-374,-384,-398,-367,-364,-364,-377,-377,-372,-358,-368,-367,-378,-376,-361,-356,-381,-432,-432,-432,-398,-398,-383,-383,-405,-405,-350,-350,-351,-405,-368,-362,-382,-374,-370,-346,-339,-366,-372,-369,-363,-361,-367,-373,-369,-377,-392,-383,-380,-376,-382,-382,-378,-367,-376,-382,-393,-387,-377,-384,-373,-377,-384,-384,-389,-379,-391,-393,-377,-370,-371,-375,-388,-386,-375,-375,-372,-377,-384,-374,-387,-389,-381,-384,-384,-379,-382,-365,-369,-392,-384,-382,-370,-370,-374,-375,-385,-385,-384,-377,-364,-335,-294,-339,-409,-420,-420,-394,-336,-337,-407,-387,-376,-379,-383,-379,-369,-342,-334,-363,-377,-388,-371,-357,-367,-390,-383,-376,-376,-376,-389,-389,-392,-392,-380,-380,-394,-394,-387,-377,-383,-369,-368,-379,-380,-366,-373,-384,-379,-376,-376,-382,-384,-394,-393,-388,-388,-394,-384,-384,-371,-360,-395,-410,-410,-410,-399,-399,-377,-377,-377,-366,-366,-357,-380,-417,-402,-365,-373,-376,-388,-391,-402,-411,-401,-394,-382,-382,-402,-425,-430,-414,-406,-416,-409,-403,-408,-403,-443,-466,-389,-440,-440,-439,-434,-438,-432,-440,-428,-371,-387,-455,-442,-433,-428,-404,-412,-421,-412,-424,-431,-433,-402,-399,-401,-433,-435,-414,-396,-397,-397,-378,-393,-390,-376,-371,-386,-381,-393,-385,-372,-397,-401,-379,-381,-377,-382,-369,-373,-389,-404,-390,-386,-384,-377,-368,-362,-352,-357,-361,-356,-377,-374,-361,-369,-374,-375,-377,-377,-367,-373,-376,-364,-369,-369,-364,-364,-347,-347,-362,-362,-379,-379,-389,-387,-404,-407,-394,-370,-372,-358,-342,-340,-351,-360,-382,-414,-412,-399,-392,-378,-357,-351,-337,-337,-369,-370,-370,-371,-367,-361,-374,-379,-370,-376,-364,-357,-360,-352,-366,-377,-384,-384,-378,-360,-367,-371,-367,-364,-376,-378,-365,-366","217,214,215,213,208,213,220,210,213,215,208,213,214,209,218,211,209,218,220,216,215,213,219,220,213,217,219,212,218,214,211,206,208,208,213,211,210,211,209,213,217,213,209,208,213,209,208,204,201,213,213,218,206,200,204,205,205,214,214,215,215,222,222,232,232,228,219,223,212,209,205,203,211,206,196,212,220,210,213,210,211,217,216,218,219,211,218,214,217,215,208,217,219,213,213,216,213,211,215,210,209,214,207,212,207,211,218,210,210,214,211,211,213,210,217,214,207,210,210,213,223,213,201,211,208,218,211,211,212,221,215,214,215,207,213,213,208,208,219,211,209,210,208,218,219,207,210,210,213,212,206,216,219,209,217,219,215,220,210,203,203,213,215,208,212,221,224,212,200,222,210,202,203,204,214,215,209,217,224,219,211,211,211,217,216,214,216,217,217,219,217,210,218,218,218,216,216,212,212,225,225,219,219,212,212,212,213,215,210,213,213,211,205,208,211,208,215,217,215,215,207,207,210,211,208,199,203,219,228,220,204,219,219,225,219,216,222,219,216,214,210,219,213,209,215,217,208,213,215,211,212,210,213,216,216,212,212,209,209,214,214,212,212,208,211,211,211,216,213,213,212,212,208,218,215,218,219,216,223,229,224,229,231,233,235,227,219,217,220,218,224,224,223,225,216,215,218,224,221,221,218,218,221,220,223,224,221,216,220,217,215,224,229,218,215,219,216,223,227,218,216,217,215,222,221,225,226,223,219,220,223,222,220,224,215,215,211,215,216,219,227,224,224,221,221,224,227,224,223,229,217,219,219,217,212,216,222,223,215,209,215,222,228,222,213,215,219,218,217,223,215,211,211,209,215,222,217,211,215,214,212,211,215,219,219,219,221,224,229,223,223,223,214,214,217,217,231,231,235,235,226,209,220,224,236,221,217,221,206,179,157,188,221,220,209,221,244,243,238,219,204,203,212,214,202,208,215,221,222,222,219,211,211,212,210,208,212,218,216,221,214,217,213,212,212,214,217,218,221,223,212,215,214,210,200,204,207,207,213,213,208,206,215,219,216,204,218,219,220,210,204,205,219,215,203,209,219,218,212,212,214,219,229,225,225,230,226,223,213,221,220,204,210,218,210,210,207,217,222,223,232,235,223,224,223,226,229,219,207,212,218,214,211,213,219,222,219,217,217,222,224,216,226,223,215,213,215,228,228,228,232,232,221,221,221,221,220,220,218,217,212,217,209,211,220,213,212,216,217,224,221,215,216,217,216,204,204,210,213,216,210,210,209,198,206,219,213,209,212,216,219,220,213,199,203,220,210,196,199,210,215,214,215,205,208,212,218,216,219,218,205,206,209,206,206,207,206,200,201,207,217,211,208,205,209,207,207,216,234,235,199,199,207,207,183,183,193,193,211,211,212,192,176,216,244,225,205,202,212,202,200,195,207,207,207,209,209,215,218,218,225,225,223,223,215,215,220,220,220,221,231,234,226,224,228,226,222,220,222,232,228,216,212,219,223,220,218,217,222,226,234,232,230,236,242,237,236,236,239,239,242,234,226,225,233,238,228,231,239,240,240,235,228,235,237,243,238,242,232,233,230,238,234,230,232,232,238,234,235,242,235,236,234,240,229,235,234,231,230,237,245,235,231,230,230,229,232,237,239,230,230,230,227,225,233,231,224,223,229,227,225,225,237,237,236,224,221,224,219,219,226,226,228,228,233,233,231,231,232,225,224,225,227,220,220,222,226,235,223,225,228,229,232,233,237,235,227,222,231,238,228,224,224,232,230,223,222,228,231,223,222,222,226,220,212,221,236,228,225,226,232,219,224,234,240,242,232,232,237,234,226,231,233,238,229,221,229,241,244,231,225,233,248,247,229,239,242,239,240,235,239,255,251,224,208,236,242,241,236,229,232,231,216,218,243,264,260,233,213,212,236,244,235,238,244,259,257,241,211,215,247,246,226,218,225,225,239,229,205,181,196,224,236,219,213,213,215,215,211,214,211,206,203,191,182,190,211,217,206,198,194,189,193,205,210,223,222,214,189,181,195,205,224,224,228,212,202,194,190,188,196,200,202,193,193,193,193,197,197,212,212,213,213,201,196,197,219,229,226,210,204,204,211,210,200,204,204,207,200,187,229,244,244,245,245,205,205,187,187,178,178,177,188,202,210,215,213,202,194,195,201,197,208,219,213,194,177,187,194,194,199,220,228,223,212,196,194,199,214,221,209,199,205,217,193,204,230,227,223,207,177,188,205,209,210,207,211,211,240,227,187,177,209,225,228,216,169,194,205,216,220,216,211,192,199,219,214,191,166,178,192,179,216,187,176,203,195,172,194,207,207,212,181,172,189,182,195,188,186,194,188,177,182,183,189,197,204,210,203,199,200,211,204,200,205,223,208,196,190,190,203,206,197,192,201,199,195,189,194,204,207,205,212,212,191,186,197,198,204,186,186,193,193,202,202,195,195,197,197,226,226,203,185,182,218,235,220,202,195,195,197,189,193,201,207,202,204,204,204,226,226,236,236,213,213,195,195,203,210,254,235,211,178,178,196,202,204,213,224,223,221,216,220,211,207,201,201,209,208,210,214,205,202,218,232,222,207,218,243,253,223,192,198,217,227,236,236,238,227,201,203,223,236,245,234,228,214,214,222,240,242,226,210,213,212,195,202,237,234,234,211,207,222,234,232,224,207,200,204,255,255,255,228,228,213,213,211,211,196,196,233,262,224,194,182,232,229,211,196,197,209,231,222,208,205,219,233,238,236,212,220,220,225,225,230,216,214,215,232,239,226,215,219,226,220,215,221,213,209,209,213,223,225,216,219,226,224,216,210,215,227,225,223,214,217,218,213,211,215,217,220,216,212,214,211,217,219,230,236,226,214,216,229,228,211,254,230,184,184,151,144,217,309,282,221,171,153,223,233,219,203,209,217,219,211,200,201,220,227,225,225,225,239,239,250,250,240,240,232,232,215,207,224,234,230,220,211,209,211,228,237,235,235,234,231,240,244,237,237,236,232,232,228,233,243,244,244,244,239,239,240,240,240,241,241,233,249,264,250,234,243,246,251,250,252,255,256,264,275,279,291,307,300,282,267,268,285,302,314,300,298,291,270,320,320,346,327,290,250,252,286,291,316,342,330,302,274,267,292,318,309,306,292,269,275,270,262,278,279,262,231,221,217,204,205,201,201,213,230,222,219,211,200,204,208,209,213,212,222,217,205,206,211,206,196,195,196,197,194,188,185,185,196,207,197,187,181,184,191,207,207,213,215,213,209,197,197,214,214,216,216,211,211,200,200,177,162,174,187,176,158,171,193,202,216,222,197,190,189,173,159,162,179,201,219,219,210,191,176,176,172,175,187,204,193,172,176,182,197,204,200,198,196,181,180,184,185,193,188,182,181,188,196,197,202","280,280,279,269,274,266,267,252,256,267,257,263,264,254,262,265,271,276,272,270,282,285,297,282,281,286,273,251,266,259,259,272,269,269,272,270,268,278,270,282,277,279,275,276,278,278,277,272,255,281,281,279,265,273,269,265,265,278,278,274,274,274,274,283,283,275,272,285,272,272,269,281,278,273,262,270,278,271,275,267,266,270,274,272,277,262,280,280,274,286,276,284,281,274,274,278,266,266,279,268,274,271,268,278,274,281,284,283,279,284,276,276,275,275,281,275,274,284,275,277,289,273,256,277,266,280,270,270,268,281,282,279,285,281,287,276,271,266,279,265,273,274,276,273,267,268,280,275,278,272,271,276,284,276,284,286,284,286,277,272,272,283,275,272,273,280,282,284,276,294,273,280,283,266,277,270,266,281,275,272,271,267,267,272,270,264,265,262,261,260,254,257,272,272,272,270,270,281,281,294,294,277,277,277,273,279,273,276,275,272,272,269,271,273,270,280,279,277,271,275,271,273,274,284,279,264,262,268,264,271,266,275,275,273,270,269,273,269,277,271,268,268,252,273,271,266,267,275,266,272,279,275,285,273,273,268,268,275,275,271,271,268,268,281,266,257,261,257,261,279,277,248,258,267,249,248,257,244,253,255,269,269,258,264,271,267,264,274,268,272,262,262,261,266,255,253,268,268,256,275,261,269,267,252,261,265,259,258,266,257,263,270,260,250,250,259,255,281,263,248,257,261,242,260,264,262,266,266,263,270,276,270,265,265,243,243,260,270,248,257,272,259,264,271,253,273,279,266,271,275,258,270,270,270,261,249,258,252,246,262,272,268,285,263,264,270,268,273,283,275,259,253,257,249,266,275,255,256,267,271,264,271,273,270,274,266,267,259,266,269,269,269,264,264,262,262,282,282,283,283,267,262,286,263,281,270,256,269,264,239,229,262,253,231,224,249,258,259,292,289,291,290,264,264,268,271,248,266,254,254,266,280,269,279,284,280,256,262,261,253,256,279,270,267,272,274,267,281,288,267,271,274,272,275,272,275,277,277,275,266,253,265,271,278,285,269,265,277,284,272,282,271,279,286,275,268,261,284,272,274,277,281,280,269,269,273,273,274,276,263,264,269,257,251,257,257,236,252,261,258,266,275,264,262,285,276,264,264,256,262,270,268,250,249,259,259,254,273,279,274,258,262,262,261,255,260,254,267,267,267,272,272,271,271,274,274,259,259,270,269,262,277,267,259,262,259,259,253,277,285,273,275,276,266,266,271,271,269,266,272,266,267,266,262,265,265,280,265,278,279,285,272,276,279,270,281,279,270,269,285,280,273,282,280,274,275,292,285,285,288,282,287,300,285,285,285,276,270,281,286,302,293,285,273,279,274,276,284,291,287,262,262,290,290,244,244,269,269,281,281,295,271,234,287,293,283,275,271,276,268,286,258,264,264,273,271,274,277,262,262,257,257,273,273,250,250,245,245,258,248,258,258,243,248,258,242,267,268,263,264,272,265,262,276,271,273,259,262,252,241,251,238,235,243,241,233,242,242,247,234,240,242,241,231,248,250,240,230,244,235,239,240,239,238,229,244,235,236,243,246,234,255,243,235,232,232,231,231,234,247,252,244,240,244,239,237,250,239,242,254,238,241,231,236,245,242,248,248,255,248,249,247,252,259,261,255,252,255,252,255,257,249,250,250,260,257,249,248,238,238,247,247,248,248,242,242,235,235,246,238,236,234,236,244,242,242,238,234,227,237,237,237,245,252,237,235,227,234,243,256,242,236,236,251,255,248,254,266,248,243,260,258,258,255,254,257,254,239,234,239,248,236,237,246,245,243,251,241,241,237,242,241,241,239,233,237,250,254,247,229,228,229,261,260,260,263,255,238,239,237,248,258,266,241,223,237,229,228,227,224,240,238,230,239,244,246,237,245,231,217,237,256,246,245,251,247,234,241,229,258,263,256,242,238,265,264,270,281,280,254,270,279,280,270,281,281,283,280,278,297,297,281,279,272,266,277,283,287,273,278,282,279,278,280,279,280,274,273,264,281,286,274,284,284,293,288,286,268,263,272,283,282,261,260,260,269,269,284,284,286,286,280,280,275,272,278,285,276,279,287,277,278,287,285,283,279,279,285,269,248,290,307,307,303,303,292,292,295,295,297,297,269,267,280,282,291,288,285,290,292,286,285,305,300,289,271,270,282,284,284,281,293,296,301,289,283,272,283,302,293,280,274,259,274,248,254,274,276,258,257,242,266,271,271,270,267,261,261,281,259,230,250,279,273,283,302,260,272,269,278,292,300,281,280,304,305,310,280,263,296,295,249,315,257,293,297,288,276,286,322,322,314,296,302,308,273,299,278,294,277,277,273,301,296,293,300,289,271,281,291,288,282,275,283,292,305,285,285,288,293,280,287,281,287,288,275,270,273,268,263,273,278,290,281,254,269,286,273,276,256,256,274,274,274,274,270,270,272,272,290,269,268,268,269,282,288,284,276,287,267,274,275,276,271,268,276,263,263,263,314,314,296,296,285,285,263,263,272,269,318,286,303,282,281,275,252,272,271,268,252,265,261,261,277,289,285,273,280,289,283,275,277,277,279,274,258,245,255,277,287,281,271,262,244,262,270,276,270,265,262,256,249,258,276,285,274,252,267,273,277,271,275,261,277,260,247,253,257,255,255,248,254,261,270,269,276,268,250,260,294,294,294,254,254,277,277,282,282,245,245,280,307,299,288,254,293,271,264,266,267,264,285,267,259,260,254,253,273,266,248,254,260,272,272,277,249,249,258,268,255,257,261,254,264,270,276,272,256,251,250,249,249,257,250,256,254,254,253,253,257,255,260,265,270,264,257,263,262,252,253,261,256,261,249,251,256,257,266,266,263,270,270,274,253,232,306,273,273,273,251,224,283,309,285,275,270,254,290,274,266,263,277,271,261,254,265,271,260,260,233,233,233,256,256,259,259,247,247,259,259,277,255,256,263,270,263,258,250,250,268,256,252,252,246,242,251,244,238,238,240,252,252,247,239,246,250,250,250,241,241,250,250,250,236,236,233,241,268,255,236,231,242,225,217,213,206,190,191,182,177,182,195,186,179,163,151,158,163,167,162,155,146,154,179,179,148,147,127,121,143,140,124,157,152,141,135,121,118,123,135,132,148,169,175,169,181,183,206,206,200,196,220,234,241,253,251,251,258,268,267,277,260,256,277,268,260,260,256,262,264,262,269,282,275,265,275,288,274,271,279,281,272,291,304,286,283,276,277,284,293,293,284,292,290,288,311,311,314,314,305,305,291,291,304,304,306,286,289,287,273,247,274,301,296,287,290,277,286,310,291,280,290,294,300,304,291,293,303,298,298,296,309,302,309,301,297,296,287,278,273,278,289,292,297,295,288,285,289,291,282,289,297,289,292,292"
"11555869,11555058,11554973,11554674,11554538,11554265,11553481,11553078,11552465,11552063,11551450,11550955,11550792,11550204,11549896,11549675,11549581,11549760,11550051,11550511,11549794,11550750,11551007,11551560,11551236,11550664,11551911,11552141,11551399,11550622,11549836,11548303,11547388,11546365,11544855,11543686,11542816,11542927,11542978,11542543,11540505,11540598,11536298,11554027,11619513,11606288,11553624,11540087,11540589,11542373,11543276,11542594,11541570,11540358,11539650,11538073,11536186,11534209,11532314,11529472,11527358,11525396,11522792,11520950,11519620,11516941,11515005,11513195,11512189,11510294,11509066,11508060,11506950,11506370,11505611,11504322,11503555,11502420,11501107,11500116,11499221,11498309,11497405,11496491,11495255,11494324,11493070,11491918,11490972,11490442,11489923,11488958,11488089,11486996,11486040,11485084,11484497,11483789,11483088,11482467,11481571,11481168,11480751,11479813,11479112,11478013,11476963,11475931,11474608,11473858,11472723,11471579,11470778,11470292,11469412,11468552,11467955,11467357,11466700,11465898,11465473,11464739,11464098,11464081,11463211,11462359,11460967,11459670,11459005,11458220,11457186,11456413,11455447,11454569,11453672,11452735,11451548,11451198,11450559,11449639,11448649,11447983,11447163,11446899,11446166,11445203,11444424,11443103,11442292,11441626,11440645,11440056,11439101,11438444,11437745,11436892,11436277,11435552,11434946,11433957,11433855,11433034,11433154,11432789,11432959,11433165,11433044,11432737,11432106,11431876,11431587,11431969,11431798,11431346,11431236,11430792,11431294,11431790,11431219,11431287,11430620,11429452,11427123,11423856,11423737,11423209,11430014,11446028,11479914,11492072,11494222,11497054,11515653,11608627,12202665,13039376,14059859,15214802,16023642,16551094,16546726,16549712,16559029,16568849,16578173,14961791,13970170,13262894,12714898,12444417,12105314,11965087,11746689,11556244,11434306,11303164,11259484,11304324,11419574,11541375,11886771,12469353,13278516,14733129,15995360,16600098,16600149,16600234,16599749,16600184,16599827,16599561,16599296,16599221,16599764,16211987,14305773,13245696,12558640,12205626,12102858,11972620,12049563,11764228,11425162,11238148,10885203,10752831,10737534,10729523,10723168,10715747,10710789,10708281,10705636,10703136,10701687,10700953,10700561,10699562,10698520,10697752,10696960,10696191,10695305,10694630,10694085,10692985,10692762,10692686,10692021,10691602,10691321,10690756,10689571,10688598,10687541,10686516,10685221,10684503,10683462,10682577,10681577,10680299,10679207,10678864,10677927,10677166,10676228,10676255,10675298,10674488,10673209,10672279,10671135,10669917,10669199,10668148,10667116,10666562,10665419,10664413,10663501,10663482,10662442,10661759,10661212,10660575,10660335,10659773,10659277,10658553,10657947,10656949,10655804,10655164,10654765,10654167,10653707,10652997,10652314,10652111,10651854,10651786,10651538,10651249,10650540,10650089,10649433,10648978,10647760,10646959,10645600,10644161,10642982,10642684,10642121,10641405,10640422,10640626,10644416,10758905,10763051,10750450,10754127,10756551,10759886,10761293,10763385,10764126,10765772,10766062,10766190,10768962,10768119,10766959,10765491,10764177,10762813,10761924,10760738,10759868,10758674,10757839,10757029,10755765,10754716,10753896,10752267,10751373,10750466,10749521,10747883,10746331,10744760,10743616,10742543,10741024,10740314,10739086,10737876,10737072,10736229,10735009,10734420,10734138,10733405,10733209,10732116,10732142,10731646,10731246,10730872,10730351,10729405,10728261,10727809,10726682,10725881,10725659,10725377,10724694,10724243,10723841,10722741,10722612,10722304,10721444,10721223,10720515,10719977,10719140,10724422,10768555,10886318,11040419,11818478,12904335,13762050,14647023,15434891,15847684,16575845,16596105,16595337,16594594,16593956,16593418,16592958,16592735,16592812,16592693,16592753,16592856,16593060,16593852,16594578,16595500,16596650,16504052,14346748,12909795,12045972,11288388,10819187,10488353,10372005,10355982,10350293,10363977,10378564,10403485,10421238,10433617,10442199,10445876,10448607,10452692,10442293,10437149,10437140,10445493,10452778,10458811,10460645,10466061,10467111,10469730,10470010,10478098,10476163,10479514,10482057,10486766,10479148,10459372,10446738,10460302,10465924,10470745,10476648,10480154,10485086,10488890,10497499,10503334,10501629,10501185,10499896,10501893,10505535,10503233,10503847,10497405,10488737,10480342,10467665,10456932,10440059,10432772,10429248,10429966,10431134,10429233,10428924,10427577,10425001,10426842,10427577,10426962,10425659,10424471,10422331,10422738,10424037,10426545,10425930,10422346,10419522,10417150,10415983,10411316,10416042,10414251,10414874,10413663,10412375,10414003,10416290,10411068,10405882,10401606,10397505,10396917,10393137,10386321,10382635,10381534,10380048,10379460,10378428,10377849,10376918,10376235,10375161,10374204,10373583,10373752,10374957,10375469,10376135,10377516,10378241,10378224,10378343,10377942,10377225,10375955,10375134,10374393,10373386,10372183,10371262,10370980,10369846,10368864,10368207,10368190,10368533,10368898,10369317,10369931,10371929,10372840,10373728,10373925,10373343,10371527,10370127,10369018,10367738,10366843,10366595,10366246,10366041,10366255,10366236,10366442,10366093,10365938,10365460,10364326,10362689,10360589,10358193,10355802,10354097,10353338,10352842,10352526,10352101,10351460,10351248,10351189,10351708,10352664,10355590,10355002,10353493,10352085,10349883,10348764,10347706,10346845,10346121,10345924,10345224,10345191,10344542,10344056,10342938,10342427,10341779,10341112,10340506,10339406,10338680,10338442,10337777,10337547,10337427,10337170,10337128,10338315,10339056,10339458,10340028,10341352,10341966,10341881,10341839,10341727,10342051,10341915,10341864,10342163,10342468,10342205,10342306,10341692,10341497,10340958,10340652,10340506,10340114,10339705,10339414,10339203,10339210,10338800,10338638,10338466,10338442,10338134,10337923,10337784,10337820,10337460,10336795,10336300,10335969,10335678,10335115,10335089,10334595,10334237,10333750,10333392,10333144,10332683,10332693,10332139,10331822,10331839,10331352,10331259,10330611,10330336,10329903,10329195,10328973,10328513,10328307,10328043,10327574,10327565,10326992,10326977,10326660,10326754,10326473,10326677,10326054,10325901,10325808,10325585,10325108,10324853,10324520,10323750,10323546,10323316,10322940,10322676,10321490,10320407,10320176,10320048,10319836,10319740,10318675,10318463,10318002,10317966,10317635,10317198,10316900,10317107,10316422,10315842,10315237,10315169,10314998,10314930,10314750,10314555,10314306,10314342,10314444,10314606,10314205,10314580,10314468,10314947,10314956,10314887,10315084,10315247,10314555,10314468,10314418,10314351,10314001,10314120,10313933,10314103,10313711,10313369,10313138,10313130,10312574,10312320,10311765,10311628,10311356,10311074,10310894,10311271,10310887,10310860,10311015,10310408,10310562,10310178,10310119,10310382,10310469,10310401,10310442,10310110,10309777,10309146,10308906,10308387,10307031,10424488,10445783,10444382,10451004,10449623,10455091,10450100,10441244,10430487,10415181,10401180,10383035,10364625,10345659,10339775,10338187,10337803,10336966,10336387,10336115,10335807,10335498,10336062,10335797,10335720,10335336,10334621,10334160,10333954,10334040,10334143,10334109,10333665,10333623,10333690,10333579,10333272,10333291,10333476,10333348,10333452,10333699,10333306,10333348,10333485,10333332,10332872,10332914,10332896,10332923,10332812,10332206,10331907,10332060,10332053,10331626,10331532,10331413,10331207,10330790,10330493,10330185,10330038,10329450,10328803,10327914,10327957,10327292,10327052,10326653,10326243,10326123,10325722,10325365,12063701,12063401,12063009,12062888,12064127,12063667,12063095,12062906,12062267,12062301,12061568,12061465,12062455,12064894,12064681,12065968,12063427,12064399,12071096,12082153,12121252,12128920,12126823,12118719,12119051,12117259,12115782,12113267,12108335,12110348,12110683,12111500,12111893,12112208,12111987,12112559,12112498,12112840,12113225,12113890,12113760,12113710,12113830,12114837,12114043,12114034,12113249,12112780,12112039,12112413,12111842,12111373,12110947,12110435,12110690,12109742,12110145,12109324,12108933,12110126,12108873,12108838,12108549,12108481,12108088,12108609,12106765,12106322,12105860,12105631,12105084,12105434,12104684,12104164,12104240,12104188,12104402,12103650,12104284,12105280,12105709,12107882,12108028,12109102,12109897,12110126,12111398,12110145,12111696,12110980,12110519,12110920,12110579,12110205,12109828,12109418,12108864,12108105,12107781,12107882,12107073,12106508,12105793,12105562,12106108,12104275,12103574,12102125,12101270,12100784,12099411,12099436,12098738,12098004,12097459,12097296,12096989,12096725,12096511,12096205,12096032,12095881,12095403,12095316,12095282,12094344,12093218,12092800,12091597,12090813,12090259,12089771,12089755,12088663,12088380,12087894,12087903,12087928,12086607,12086189,12086103,12085462,12085471,12085225,12084200,12083613,12079867,12082589,12082102,12080907,12080387,12080047,12079867,12079935,12080370,12079279,12078741,12078842,12078228,12078561,12077930,12077701,12077340,12077110,12077043,12077068,12076505,12075969,12074534,12074185,12073759,12072777,12072494,12072144,12071277,12070678,12070892,12070269,12070099,12067538,12064417,12060756,12056995,12056039,12056430,12056927,12059375,12060218,12057736,12056098,12049956,12041664,12039428,12037817,12038891,12042363,12040155,12040162,12041484,12042900,12046229,12055143,12069116,12085386,12104624,12123172,12140055,12156571,12173532,12187915,12199670,12207732,12214276,12216110,12213012,12208467,12203596,12201079,12196907,12192761,12188759,12184929,12182515,12180109,12177276,12174076,12172200,12168531,12166221,12163925,12161289,12159745,12153720,12154984,12153210,12150959,12148568,12146309,12143100,12140728,12139534,12136575,12134911,12134075,12131789,12130397,12128640,12127624,12120910,12127624,12127907,12128460,12128664,12129425,12130346,12130475,12131345,12131924,12134083,12136122,12138834,12141402,12145062,12148338,12151615,12154395,12156758,12158321,12159590,12160828,12162226,12165350,12165487,12165299,12163294,12161988,12160768,12157705,12155964,12153508,12152784,12151784,12149532,12149072,12148124,12147527,12146802,12146410,12144192,12143220,12143281,12143194,12143124,12143621,12143263,12142803,12141872,12141582,12140344,12138477,12135593,12132682,12130901,12129801,12128649,12125995,12123181,12117088,12119246,12118710,12118069,12118420,12118794,12119128,12119845,12121311,12122651,12127744,12138665,12153090,12168465,12181200,12187037,12189492,12191797,12196088,12200029,12204140,12208407,12211599,12213482,12216196,12217372,12219720,12223235,12227065,12232968,12238590,12243685,12247796,12250038,12251702,12253051,12253947,12254791,12254605,12254587,12254289,12253818,12251412,12249510,12248291,12247933,12247413,12247217,12247199,12247275,12246679,12246968,12247285,12247345,12246679,12245474,12245090,12245534,12243189,12236339,12239777,12237302,12235179,12233044,12229189,12226571,12223849,12221288,12218464,12216118,12213082,12210300,12207605,12205130,12201266,12198680,12195132,12190756,12176859,12173157,12405342,12484204,12571377,12614793,12783183,12899522,13323611,13346603,13164828,12607653,12039318,12000380,12003213,12006070,12003844,12002429,12001498,12000108,11998632,11992754,11983549,11983431,11960916,11951052,11948093,11948741,11952479,11957998,11959099,11961316,11962529,11959960,11957161,11955780,11951727,11949294,11947410,11945721,11941618,11946489,11946864,11948477,11949485,11949109,11948427,11947512,11946789,11946336,11944304,11942386,11941319,11941131,11941344,11941575,11942674,11946601,11949518,11954457,11961435,11970735,11980829,11992473,12003631,12012675,12021113,12028466,12031811,12027699,12023790,12021300,12020104,12019344,12018612,12018485,12020036,12022724,12026419,12032161,12038943,12047499,12055859,12063948,12071149,12078382,12085044,12092356,12099319,12105487,12111312,12115341,12120722,12124229,12123113,12120177,12118146,12114283,12109222,12100137,12102057,12099070,12095071,12092101,12089728,12085711,12083613,12081854,12078963,12075770,12068314,12062318,12063615,12061788,12060432,12058813,12056892,12054682,12052224,12049496,12046075,12043592,12040367,12037749,12035358,12032595,12030922,12028730,12026803,12025897,12023365,12021922,12019953,12018058,12016267,12015088,12012196,12010174,12008374,12006353,12004817,12003249,12001371,12000287,11999033,11997865,11996313,11995330,11994280,11992661,11991424,11990211,11989878,11985691,11985724,11984327,11982738,11981467,11978081,11978574,11977192,11976058,11974394,11974156,11972049,11970513,11969728,11968568,11968072,11966333,11965240,11963697,11963542,11962315,11960762,11958869,11957544,11955626,11953570,11952667,11951933,11949944,11948741,11947351,11946643,11945849,11944851,11944323,11943691,11943691,11943400,11943871,11943009,11943273,11942582,11941524,11941353,11940185,11939272,11938274,11937787,11937753,11936569,11935790,11935218,11934460,11934118,11933547,11932303,11930067,11926679,11921022,11910521,11914573,11918932,11926159,11937966,11919990,11872661,11785368,11935602,12395556,12753452,13444287,14345724,16091295,16332465,16598708,16599152,16599211,16599381,16599195,16599349,16599287,16599228,16599101,16599134,16598853,16598691,16598391,16598187,16594937,12374025,11998564,12304479,12345256,12214558,11682669,11353584,11262572,11244938","-359,-359,-359,-360,-360,-360,-360,-360,-358,-358,-358,-358,-359,-359,-359,-363,-362,-360,-362,-360,-359,-360,-359,-357,-357,-358,-358,-357,-359,-358,-358,-359,-358,-358,-359,-360,-359,-358,-358,-358,-357,-357,-358,-362,-358,-355,-363,-362,-360,-360,-358,-360,-356,-358,-358,-359,-359,-359,-357,-360,-359,-358,-357,-358,-358,-357,-358,-355,-355,-356,-357,-358,-358,-359,-358,-357,-357,-357,-355,-357,-357,-357,-356,-354,-354,-356,-354,-355,-356,-357,-359,-355,-356,-357,-356,-357,-356,-356,-355,-358,-357,-355,-356,-355,-354,-354,-355,-356,-357,-357,-357,-355,-354,-358,-359,-356,-356,-356,-357,-357,-357,-356,-354,-356,-356,-356,-356,-357,-356,-358,-357,-358,-356,-356,-356,-356,-357,-356,-356,-356,-355,-356,-356,-354,-354,-356,-357,-355,-353,-355,-352,-354,-355,-355,-356,-355,-355,-356,-356,-354,-356,-356,-358,-359,-359,-362,-362,-362,-361,-361,-362,-362,-362,-362,-366,-366,-366,-366,-368,-371,-372,-374,-380,-387,-390,-396,-397,-405,-414,-415,-421,-427,-424,-441,-441,-434,-434,-413,-413,-389,-389,-381,-381,-400,-431,-456,-470,-466,-449,-454,-452,-449,-449,-450,-443,-444,-439,-429,-423,-426,-422,-421,-418,-412,-417,-423,-420,-407,-408,-405,-407,-410,-414,-413,-405,-403,-407,-406,-401,-401,-392,-396,-402,-403,-398,-402,-403,-402,-392,-392,-392,-398,-398,-396,-396,-390,-390,-387,-387,-390,-394,-391,-389,-388,-388,-389,-389,-389,-388,-386,-388,-390,-389,-389,-391,-390,-390,-388,-389,-388,-389,-389,-388,-388,-388,-391,-387,-389,-392,-390,-391,-390,-389,-389,-388,-390,-389,-389,-390,-390,-391,-391,-392,-391,-389,-389,-389,-390,-387,-387,-387,-388,-390,-389,-388,-391,-390,-388,-387,-390,-390,-388,-388,-387,-388,-392,-391,-389,-389,-388,-387,-387,-386,-388,-389,-388,-389,-390,-388,-387,-390,-384,-386,-390,-389,-389,-388,-390,-389,-387,-387,-389,-387,-387,-389,-390,-390,-390,-392,-393,-391,-391,-389,-390,-389,-388,-388,-388,-387,-386,-388,-390,-391,-389,-389,-389,-389,-388,-388,-389,-389,-388,-388,-387,-387,-388,-389,-390,-389,-388,-387,-388,-388,-386,-388,-387,-386,-386,-388,-388,-387,-387,-389,-389,-389,-389,-391,-389,-388,-389,-389,-388,-387,-388,-387,-386,-386,-387,-389,-389,-394,-388,-389,-386,-386,-386,-386,-387,-389,-389,-388,-390,-390,-387,-386,-388,-388,-386,-386,-387,-386,-385,-386,-386,-385,-384,-386,-385,-386,-386,-385,-385,-387,-388,-388,-387,-387,-387,-388,-389,-388,-387,-387,-387,-388,-389,-389,-389,-388,-388,-389,-389,-388,-388,-389,-388,-388,-390,-389,-389,-388,-388,-388,-390,-389,-388,-389,-389,-387,-386,-387,-388,-388,-387,-389,-388,-389,-388,-387,-388,-387,-386,-387,-387,-390,-389,-389,-388,-389,-391,-389,-389,-390,-391,-390,-390,-390,-389,-390,-390,-390,-391,-389,-388,-387,-388,-389,-389,-389,-390,-389,-389,-388,-387,-386,-388,-387,-388,-386,-387,-388,-387,-387,-388,-386,-387,-385,-385,-386,-382,-383,-381,-383,-383,-382,-378,-376,-375,-371,-370,-368,-366,-366,-361,-361,-360,-359,-358,-359,-362,-359,-358,-360,-365,-366,-366,-367,-366,-367,-364,-365,-368,-369,-368,-367,-368,-369,-367,-369,-370,-372,-375,-376,-376,-377,-380,-383,-383,-383,-386,-392,-394,-397,-398,-398,-400,-400,-400,-397,-397,-394,-394,-396,-396,-399,-399,-400,-400,-401,-397,-397,-398,-400,-400,-400,-403,-399,-400,-401,-400,-400,-398,-399,-397,-399,-401,-404,-399,-400,-400,-401,-398,-396,-397,-397,-395,-392,-391,-391,-391,-390,-390,-390,-390,-388,-389,-390,-387,-389,-391,-389,-389,-388,-389,-389,-388,-387,-386,-388,-386,-387,-387,-389,-387,-389,-388,-388,-388,-387,-388,-388,-388,-388,-387,-385,-387,-391,-389,-389,-390,-390,-390,-390,-390,-389,-389,-390,-390,-390,-390,-389,-390,-390,-389,-389,-388,-388,-388,-389,-391,-390,-390,-390,-390,-389,-388,-389,-389,-391,-391,-390,-390,-389,-389,-389,-388,-388,-386,-386,-389,-389,-392,-392,-394,-393,-392,-391,-391,-391,-393,-390,-390,-391,-391,-391,-391,-391,-388,-389,-389,-389,-390,-389,-389,-389,-390,-389,-388,-388,-389,-389,-389,-390,-391,-390,-391,-389,-388,-390,-390,-392,-391,-389,-390,-390,-388,-391,-390,-389,-388,-389,-388,-389,-389,-391,-390,-390,-391,-393,-392,-393,-393,-394,-391,-392,-393,-390,-390,-389,-389,-388,-387,-388,-389,-391,-390,-388,-392,-391,-393,-393,-391,-390,-390,-390,-392,-392,-391,-392,-391,-391,-391,-392,-394,-395,-393,-391,-393,-395,-395,-395,-394,-394,-395,-395,-393,-393,-393,-393,-392,-393,-393,-392,-394,-394,-395,-396,-394,-394,-393,-396,-395,-396,-394,-394,-393,-394,-391,-391,-391,-390,-390,-390,-390,-390,-390,-393,-393,-391,-391,-389,-391,-392,-387,-388,-391,-391,-391,-390,-389,-388,-389,-386,-388,-384,-387,-389,-387,-386,-388,-388,-386,-386,-384,-386,-386,-388,-386,-386,-386,-388,-388,-388,-388,-386,-385,-386,-386,-387,-386,-385,-384,-383,-385,-385,-387,-385,-385,-384,-384,-385,-386,-384,-385,-385,-385,-384,-385,-385,-383,-383,-384,-385,-383,-383,-383,-383,-383,-384,-382,-385,-385,-383,-383,-386,-386,-386,-385,-385,-384,-384,-385,-385,-386,-385,-385,-386,-385,-385,-383,-384,-385,-385,-384,-383,-385,-384,-385,-384,-384,-383,-383,-385,-385,-383,-383,-384,-384,-385,-384,-383,-385,-384,-383,-384,-383,-382,-384,-383,-383,-383,-383,-382,-383,-383,-383,-382,-382,-383,-383,-384,-383,-383,-382,-382,-383,-384,-385,-384,-383,-383,-383,-383,-383,-383,-383,-383,-384,-385,-386,-385,-385,-384,-382,-382,-382,-383,-383,-385,-385,-383,-383,-382,-382,-383,-383,-384,-388,-387,-389,-396,-396,-392,-398,-402,-400,-402,-406,-407,-405,-409,-407,-407,-414,-414,-412,-412,-406,-406,-408,-408,-409,-406,-406,-405,-405,-402,-400,-403,-402,-403,-404,-405,-408,-405,-405,-404,-402,-407,-405,-407,-407,-408,-406,-406,-406,-405,-404,-404,-404,-405,-408,-408,-407,-405,-406,-408,-408,-409,-408,-407,-406,-406,-405,-410,-410,-409,-408,-408,-408,-408,-409,-409,-409,-409,-407,-407,-407,-409,-409,-410,-409,-406,-407,-409,-405,-406,-407,-405,-407,-407,-408,-408,-406,-408,-408,-407,-410,-407,-408,-407,-409,-410,-410,-410,-408,-407,-407,-406,-409,-408,-407,-409,-409,-408,-408,-406,-407,-410,-409,-408,-409,-408,-409,-410,-410,-411,-409,-409,-408,-408,-408,-408,-406,-408,-408,-406,-405,-408,-407,-409,-407,-406,-407,-408,-407,-408,-406,-406,-407,-405,-404,-407,-409,-406,-407,-405,-405,-405,-408,-407,-405,-403,-404,-405,-405,-407,-405,-405,-405,-404,-405,-406,-404,-405,-405,-405,-403,-407,-407,-406,-406,-405,-404,-407,-405,-405,-405,-405,-405,-407,-407,-404,-407,-407,-405,-405,-404,-402,-402,-404,-404,-404,-403,-376,-376,-376,-370,-370,-370,-370,-369,-369,-367,-367,-370,-367,-367,-370,-373,-375,-375,-376,-373,-376,-375,-374,-373,-374,-376,-377,-375,-374,-372,-378,-381,-379,-387,-396,-398,-401,-403,-404,-412,-412,-414,-414,-412,-416,-415,-417,-415,-416,-419,-417,-412,-413,-411,-415,-413,-427,-427,-427,-428,-428,-431,-431,-437,-437,-437,-437,-431,-435,-433,-437,-436,-432,-430,-432,-432,-432,-428,-426,-427,-430,-428,-430,-431,-429,-432,-432,-430,-428,-431,-431,-432,-431,-425,-431,-431,-423,-418,-426,-423,-419,-420,-421,-421,-421,-422,-419,-419,-421,-421,-424,-422,-424,-427,-423,-422,-420,-417,-417,-417,-418,-418,-414,-414,-416,-414,-413,-415,-414,-414,-415,-415,-415,-415,-414,-414,-414,-415,-415,-414,-414,-414,-413,-413,-414,-414,-415,-415,-415,-415,-416,-415,-415,-414,-416,-413,-415,-415,-417,-415,-416,-416,-412,-414,-414,-414,-415,-415,-414,-414,-413,-413,-412,-412,-412,-412,-415,-415,-415,-415,-413,-413,-413,-414,-413,-413,-411,-413,-414,-415,-414,-415,-415,-415,-417,-415,-414,-415,-413,-414,-416,-412,-412,-416,-413,-414,-413,-415,-413,-416,-415,-415,-422,-406,-410,-427,-403,-417,-425,-428,-425,-427,-420,-424,-424,-424,-428,-428,-430,-430,-426,-426,-421,-421,-426,-425,-424,-421,-421,-413,-406,-404,-387,-390,-400,-394,-389,-388,-391,-395,-392","12,12,12,12,12,14,14,14,13,13,12,11,14,12,13,13,12,15,17,15,13,14,15,12,10,12,12,13,12,14,10,9,9,9,13,9,9,8,10,10,6,8,12,20,25,28,25,21,20,12,13,13,12,15,16,18,20,18,21,17,15,16,15,14,16,16,16,16,14,13,16,17,17,14,15,18,19,17,19,18,16,16,14,16,15,17,15,18,18,18,17,18,17,17,16,15,15,13,14,16,14,16,18,19,19,16,16,17,12,11,15,14,13,15,15,15,17,16,15,15,17,19,15,15,15,16,19,18,19,16,17,16,18,17,18,17,16,17,14,17,16,14,16,15,15,15,16,14,16,14,12,11,14,13,12,15,15,13,17,16,12,14,16,14,16,14,14,14,17,17,19,19,19,19,20,20,20,19,18,19,18,21,24,25,38,48,54,67,77,85,88,92,96,127,127,132,132,142,142,150,150,150,150,138,125,122,118,102,85,76,70,69,68,62,59,60,62,60,52,53,52,51,53,56,60,60,62,63,57,50,43,41,51,60,59,54,53,44,46,53,54,54,56,51,46,43,45,45,38,38,38,43,43,46,46,39,39,34,34,36,40,38,35,31,29,31,34,34,33,31,29,29,32,32,29,31,29,30,31,31,31,30,29,29,30,30,30,29,29,30,30,30,28,30,31,28,28,28,27,27,27,30,33,32,29,29,30,33,30,30,30,29,30,31,30,29,30,27,27,32,34,32,30,32,31,32,32,32,32,30,31,33,33,31,32,32,33,32,31,34,32,37,39,34,34,35,32,32,32,30,28,27,32,32,33,33,34,32,31,30,30,31,31,32,34,34,33,32,31,32,34,32,34,35,33,32,31,33,32,31,34,34,34,33,34,33,35,33,32,32,33,33,31,32,34,34,31,31,31,31,32,33,33,32,33,34,34,34,33,34,33,35,34,35,34,36,39,40,43,45,39,39,41,41,40,40,42,45,43,44,43,41,41,45,43,44,42,43,41,42,42,39,41,41,38,41,38,37,36,34,34,32,33,30,32,32,33,34,33,33,32,31,32,31,30,31,30,29,31,31,31,31,29,29,31,32,32,32,33,34,33,37,35,34,35,35,34,35,34,35,39,35,36,36,36,34,35,34,35,33,34,33,33,29,33,35,40,35,32,36,34,33,33,34,34,37,35,34,34,34,34,32,32,31,32,34,34,35,34,34,34,32,33,34,34,35,33,32,34,35,33,31,32,33,33,35,35,33,33,37,34,31,29,29,34,30,29,31,31,30,28,29,29,26,26,26,22,23,22,24,25,24,25,30,30,30,29,32,34,35,34,34,31,31,28,27,28,28,29,30,29,29,28,30,33,31,28,28,29,27,29,31,31,33,36,31,39,42,32,32,31,31,30,30,34,34,34,34,35,35,34,30,32,30,26,28,29,30,29,34,34,33,33,32,32,34,40,38,36,35,34,36,35,34,34,33,30,29,28,29,32,35,32,31,30,28,28,30,30,32,28,29,29,30,30,28,29,27,29,26,26,28,28,28,30,30,31,30,29,27,28,27,27,27,26,25,25,27,30,28,29,28,28,28,29,26,29,30,29,30,29,27,24,23,27,25,25,26,27,29,29,29,27,28,32,34,35,33,34,34,33,33,33,31,31,31,31,30,30,30,30,28,29,31,33,30,30,31,28,31,27,27,30,30,29,31,31,30,32,34,31,34,34,32,31,32,29,30,30,30,30,28,28,29,27,30,31,32,32,31,32,33,32,33,33,32,32,33,33,31,35,32,31,30,32,42,43,40,44,46,44,44,42,41,41,39,41,41,40,42,36,36,36,36,35,36,36,38,39,37,38,37,36,34,37,35,36,36,36,36,35,35,36,35,35,36,35,37,39,37,37,35,35,35,35,36,36,38,38,36,36,35,34,37,37,36,35,37,35,34,32,34,35,34,33,34,33,34,34,34,32,32,31,31,32,32,34,34,34,34,34,35,35,35,36,36,38,37,37,38,37,40,38,38,35,33,34,35,38,39,37,36,35,33,34,33,35,34,33,33,32,34,34,32,32,33,34,34,35,35,34,34,35,34,34,32,32,35,37,36,35,33,35,35,34,35,35,35,35,33,34,33,34,32,32,31,32,32,32,32,33,33,33,33,31,31,31,29,29,29,29,32,32,32,32,30,31,31,30,31,31,32,32,31,32,31,30,28,30,30,32,32,31,31,31,31,32,32,27,29,27,28,29,28,29,28,28,29,27,27,30,31,32,30,30,31,30,31,31,30,31,30,30,30,31,32,32,31,31,30,29,32,32,32,30,31,30,33,31,30,32,33,31,35,35,35,36,36,31,31,34,34,33,33,32,32,32,29,31,30,29,27,30,28,21,32,34,33,32,42,41,45,45,44,44,46,46,47,47,44,44,46,46,43,39,40,43,44,42,43,41,37,34,32,32,31,31,28,29,27,29,29,28,29,33,33,30,31,28,30,28,28,30,29,31,30,31,32,36,31,33,36,35,36,35,34,37,37,37,36,36,41,41,45,45,43,43,42,45,46,47,47,48,44,44,44,43,42,41,39,42,39,39,38,37,35,37,34,36,33,34,35,37,33,36,34,34,32,31,33,33,33,29,29,30,31,32,31,31,30,30,31,32,32,34,35,36,37,37,35,40,38,37,37,37,39,39,39,41,39,42,38,37,38,37,38,38,35,35,35,36,36,36,35,35,37,34,35,37,35,34,34,31,30,32,34,34,36,33,31,32,29,26,24,22,20,22,20,18,19,17,21,20,20,18,19,18,21,18,18,20,23,22,22,24,20,21,22,23,23,25,23,23,22,10,10,10,11,11,13,13,14,14,11,11,11,10,10,8,21,18,13,16,19,17,16,15,13,11,15,17,15,18,17,15,20,21,19,18,23,25,22,18,17,18,17,18,21,22,23,21,21,25,24,18,17,16,24,23,20,19,19,19,24,24,24,24,21,21,17,17,15,18,24,25,24,23,17,17,19,18,15,18,18,16,20,19,19,20,20,19,20,21,20,20,23,24,27,21,16,24,27,18,24,22,20,23,24,24,23,26,26,25,26,31,36,35,31,28,29,26,27,26,24,26,28,26,25,30,29,31,30,29,29,26,27,28,30,30,29,30,31,29,28,27,27,28,28,30,30,28,28,26,26,29,30,29,30,32,31,30,32,32,32,28,27,27,28,28,30,29,29,31,31,30,30,30,30,29,29,29,29,28,31,32,31,32,29,37,33,31,31,30,30,28,29,31,26,29,29,29,31,31,29,28,32,32,31,31,30,29,28,24,29,30,23,25,17,16,20,21,21,19,26,36,33,40,57,57,57,53,53,58,58,58,58,57,57,60,62,63,66,71,64,64,64,61,56,48,49,49,46,41,42,45","-268,-268,-268,-267,-267,-268,-268,-268,-262,-262,-267,-268,-277,-275,-278,-280,-277,-266,-273,-279,-278,-270,-268,-275,-277,-269,-271,-276,-278,-279,-279,-280,-283,-279,-276,-269,-271,-282,-279,-279,-285,-275,-270,-282,-277,-265,-270,-273,-274,-270,-263,-269,-262,-262,-268,-270,-276,-274,-273,-265,-270,-264,-258,-260,-269,-269,-281,-273,-268,-271,-275,-274,-271,-285,-275,-272,-276,-272,-272,-285,-276,-282,-274,-271,-275,-280,-269,-270,-275,-278,-272,-272,-268,-277,-278,-275,-273,-269,-266,-267,-271,-277,-281,-278,-273,-273,-279,-280,-280,-277,-280,-276,-265,-270,-262,-261,-267,-265,-270,-273,-274,-278,-270,-275,-271,-269,-275,-277,-282,-274,-273,-268,-273,-276,-274,-268,-267,-271,-271,-270,-265,-266,-272,-270,-270,-271,-272,-272,-269,-277,-276,-266,-263,-276,-272,-269,-276,-268,-264,-272,-275,-280,-272,-270,-274,-269,-269,-269,-265,-265,-263,-263,-268,-268,-270,-270,-263,-268,-270,-265,-262,-254,-257,-255,-245,-232,-220,-219,-202,-205,-201,-179,-160,-111,-111,-99,-99,-81,-81,-74,-74,-81,-81,-107,-130,-114,-105,-119,-109,-117,-130,-132,-151,-159,-163,-166,-176,-177,-185,-188,-203,-210,-199,-201,-188,-192,-206,-205,-215,-227,-227,-222,-205,-203,-210,-215,-202,-197,-207,-222,-221,-212,-214,-224,-221,-214,-233,-240,-229,-229,-229,-223,-223,-230,-230,-242,-242,-242,-242,-236,-238,-242,-239,-233,-246,-244,-239,-246,-249,-242,-239,-245,-232,-235,-243,-239,-245,-231,-233,-231,-241,-241,-243,-239,-237,-240,-246,-234,-239,-245,-237,-238,-235,-242,-239,-241,-242,-244,-235,-235,-230,-235,-241,-231,-245,-249,-242,-247,-232,-233,-233,-236,-244,-244,-234,-244,-239,-241,-247,-249,-243,-240,-246,-240,-232,-243,-243,-243,-239,-243,-239,-241,-238,-241,-235,-235,-245,-244,-252,-234,-236,-231,-229,-244,-233,-242,-247,-245,-244,-233,-230,-228,-223,-237,-240,-247,-241,-242,-243,-233,-234,-236,-245,-246,-249,-256,-255,-247,-250,-243,-249,-246,-242,-244,-249,-250,-242,-247,-237,-238,-244,-239,-239,-241,-238,-241,-247,-236,-244,-241,-242,-239,-245,-240,-242,-243,-236,-229,-234,-234,-243,-231,-237,-240,-246,-236,-240,-230,-236,-233,-243,-235,-239,-247,-238,-240,-242,-236,-227,-234,-232,-233,-227,-231,-233,-238,-233,-238,-240,-246,-250,-238,-238,-241,-238,-247,-237,-241,-246,-248,-246,-250,-242,-242,-243,-239,-239,-249,-242,-243,-241,-235,-240,-250,-247,-241,-235,-238,-249,-246,-242,-248,-242,-248,-245,-235,-235,-235,-231,-242,-247,-249,-254,-245,-244,-248,-248,-242,-250,-242,-243,-235,-246,-244,-248,-237,-245,-248,-247,-241,-239,-241,-244,-244,-248,-238,-242,-235,-236,-240,-240,-237,-246,-251,-240,-246,-240,-253,-236,-228,-241,-248,-243,-240,-248,-250,-247,-241,-241,-242,-242,-243,-241,-238,-238,-241,-244,-248,-252,-242,-251,-249,-242,-248,-242,-243,-234,-234,-239,-243,-248,-239,-234,-236,-231,-234,-240,-248,-243,-243,-248,-241,-242,-242,-248,-251,-252,-256,-253,-262,-265,-263,-268,-267,-267,-271,-269,-265,-270,-275,-268,-270,-268,-262,-259,-263,-253,-245,-253,-260,-252,-258,-260,-258,-256,-251,-257,-262,-261,-263,-255,-248,-253,-241,-247,-250,-247,-247,-234,-243,-225,-234,-243,-231,-221,-237,-217,-223,-235,-235,-231,-231,-219,-219,-224,-224,-226,-226,-226,-221,-224,-223,-221,-214,-229,-223,-229,-232,-230,-228,-232,-217,-217,-222,-226,-226,-232,-221,-221,-228,-237,-245,-235,-227,-240,-233,-234,-239,-237,-240,-246,-245,-237,-240,-225,-239,-238,-239,-237,-236,-244,-244,-237,-240,-249,-251,-243,-234,-234,-239,-234,-227,-240,-241,-242,-234,-243,-248,-243,-239,-242,-242,-239,-239,-237,-240,-239,-246,-238,-236,-235,-239,-245,-247,-244,-250,-237,-244,-250,-239,-242,-243,-239,-241,-247,-238,-241,-238,-247,-250,-242,-243,-240,-239,-232,-234,-239,-237,-240,-240,-242,-242,-250,-247,-247,-245,-245,-240,-240,-248,-248,-242,-231,-233,-242,-243,-244,-248,-237,-242,-247,-247,-235,-244,-232,-237,-238,-236,-245,-237,-244,-235,-239,-234,-234,-244,-241,-247,-247,-237,-246,-245,-248,-241,-242,-238,-237,-236,-241,-240,-242,-238,-240,-246,-246,-249,-246,-245,-242,-239,-233,-243,-243,-243,-239,-238,-236,-244,-248,-229,-237,-237,-242,-247,-232,-237,-238,-236,-240,-242,-238,-238,-241,-239,-237,-240,-237,-240,-233,-238,-237,-231,-233,-226,-227,-235,-239,-241,-238,-237,-224,-229,-242,-243,-242,-231,-230,-232,-242,-230,-230,-237,-237,-241,-241,-238,-238,-241,-241,-235,-227,-232,-227,-231,-233,-234,-230,-233,-231,-237,-236,-240,-234,-235,-239,-237,-236,-227,-227,-227,-235,-235,-235,-235,-239,-239,-241,-241,-247,-232,-234,-232,-229,-236,-235,-237,-242,-234,-232,-231,-229,-236,-240,-246,-249,-246,-245,-243,-251,-245,-248,-241,-247,-250,-238,-245,-242,-238,-241,-252,-239,-246,-246,-246,-245,-251,-248,-241,-243,-249,-256,-251,-252,-251,-239,-238,-237,-232,-237,-245,-245,-242,-238,-233,-240,-249,-246,-242,-238,-236,-240,-242,-251,-252,-253,-245,-250,-251,-251,-243,-244,-244,-243,-243,-248,-245,-245,-249,-249,-244,-244,-246,-246,-240,-240,-246,-240,-253,-254,-242,-240,-247,-249,-248,-250,-242,-243,-250,-250,-250,-256,-256,-245,-245,-244,-244,-256,-256,-249,-257,-242,-243,-239,-248,-244,-245,-248,-245,-246,-248,-256,-258,-255,-256,-247,-251,-251,-253,-254,-240,-251,-247,-247,-245,-240,-242,-243,-248,-250,-238,-241,-238,-249,-249,-246,-250,-251,-253,-244,-252,-256,-246,-250,-254,-254,-254,-255,-255,-257,-257,-246,-246,-249,-249,-242,-249,-251,-248,-245,-244,-252,-248,-235,-223,-242,-211,-205,-220,-222,-210,-209,-205,-205,-208,-208,-200,-200,-204,-204,-228,-228,-227,-226,-235,-228,-235,-232,-211,-213,-224,-234,-221,-223,-217,-230,-228,-223,-229,-225,-220,-224,-226,-222,-228,-223,-222,-220,-219,-215,-227,-226,-206,-207,-208,-218,-223,-224,-218,-218,-212,-208,-212,-223,-215,-221,-214,-216,-217,-217,-210,-210,-211,-211,-223,-223,-230,-230,-224,-215,-213,-224,-224,-216,-204,-212,-208,-215,-219,-211,-219,-211,-202,-214,-216,-220,-214,-211,-223,-216,-206,-207,-212,-215,-217,-215,-210,-213,-210,-215,-218,-211,-211,-204,-210,-215,-217,-219,-220,-214,-204,-196,-202,-206,-212,-210,-218,-213,-203,-203,-211,-210,-206,-207,-218,-227,-212,-214,-213,-217,-222,-213,-218,-218,-215,-216,-210,-208,-203,-210,-220,-211,-219,-213,-215,-211,-208,-216,-218,-223,-216,-216,-211,-215,-218,-213,-217,-226,-221,-219,-228,-219,-218,-222,-221,-220,-223,-215,-217,-222,-219,-221,-217,-222,-221,-216,-217,-214,-206,-202,-202,-210,-214,-217,-226,-217,-217,-221,-219,-228,-223,-238,-233,-227,-213,-262,-262,-262,-277,-277,-266,-266,-260,-260,-265,-265,-262,-268,-264,-261,-248,-246,-257,-259,-260,-260,-261,-268,-264,-265,-258,-261,-260,-263,-259,-248,-251,-244,-241,-263,-254,-226,-211,-195,-206,-196,-192,-205,-198,-194,-206,-218,-203,-210,-197,-204,-206,-202,-197,-202,-205,-185,-185,-185,-172,-172,-169,-169,-173,-173,-177,-177,-172,-174,-173,-183,-185,-177,-187,-191,-186,-191,-187,-180,-175,-185,-185,-181,-180,-178,-175,-178,-180,-178,-180,-180,-176,-176,-177,-201,-206,-189,-183,-197,-200,-199,-203,-201,-197,-195,-196,-194,-194,-192,-190,-194,-193,-198,-200,-196,-191,-190,-194,-201,-204,-224,-224,-211,-208,-203,-196,-207,-209,-201,-204,-200,-209,-203,-210,-209,-208,-203,-205,-207,-213,-211,-211,-209,-209,-208,-208,-213,-213,-217,-217,-205,-201,-195,-201,-209,-215,-207,-207,-216,-217,-211,-209,-205,-206,-207,-199,-203,-207,-198,-198,-212,-212,-205,-205,-196,-196,-207,-207,-207,-207,-205,-204,-206,-220,-211,-204,-206,-214,-208,-220,-211,-214,-217,-219,-209,-219,-217,-213,-208,-208,-210,-215,-215,-216,-207,-200,-209,-201,-204,-203,-210,-209,-209,-218,-210,-198,-199,-200,-204,-192,-186,-190,-185,-180,-180,-180,-174,-174,-173,-173,-169,-169,-170,-170,-170,-170,-171,-172,-182,-177,-179,-184,-191,-214,-226,-239,-241,-254,-245,-240,-229"
